LTriangleOpac,LCircleOpac,LHexagonOpac,LStarOpac,RTriangleOpac,RCircleOpac,RHexagonOpac,RStarOpac,LShape_ID,RShape_ID,training_blocks.thisRepN,training_blocks.thisTrialN,training_blocks.thisN,training_blocks.thisIndex,training.thisRepN,training.thisTrialN,training.thisN,training.thisIndex,task1_prac_redo.thisRepN,task1_prac_redo.thisTrialN,task1_prac_redo.thisN,task1_prac_redo.thisIndex,task1_prac_trials.thisRepN,task1_prac_trials.thisTrialN,task1_prac_trials.thisN,task1_prac_trials.thisIndex,task2_prac_redo.thisRepN,task2_prac_redo.thisTrialN,task2_prac_redo.thisN,task2_prac_redo.thisIndex,task2_praac_trials.thisRepN,task2_praac_trials.thisTrialN,task2_praac_trials.thisN,task2_praac_trials.thisIndex,vts_prac_redo.thisRepN,vts_prac_redo.thisTrialN,vts_prac_redo.thisN,vts_prac_redo.thisIndex,vts_practice_trials.thisRepN,vts_practice_trials.thisTrialN,vts_practice_trials.thisN,vts_practice_trials.thisIndex,trials_norew.thisRepN,trials_norew.thisTrialN,trials_norew.thisN,trials_norew.thisIndex,block.thisRepN,block.thisTrialN,block.thisN,block.thisIndex,trials_rew.thisRepN,trials_rew.thisTrialN,trials_rew.thisN,trials_rew.thisIndex,key_resp.started,key_resp.keys,key_resp.rt,left_circle.started,right_circle.started,left_triangle.started,right_triangle.started,left_star.started,right_star.started,left_hexagon.started,right_hexagon.started,training_fix.started,training_resp.started,training_resp.keys,training_resp.rt,points_trial,points_cumul,trainBlock,training_feedback_txt.started,fix.started,training_feedback_txt.stopped,fix.stopped,curr_topStim,curr_bottStim,curr_shape,ISI.started,tgt_fix_prac1.started,top_target_prac1.started,bott_target_prac1.started,target_resp_prac1.started,acc,E1,target_resp_prac1.keys,target_resp_prac1.rt,pracBlock,prac_fback_text.started,tgt_fix_prac2.started,top_target_prac2.started,bott_target_prac2.started,target_resp_prac2.started,target_resp_prac2.keys,target_resp_prac2.rt,prac_fback_text.stopped,star.started,hegagon.started,triangle.started,circle.started,top_target.started,tgt_fix.started,bot_target.started,target_resp.started,star.stopped,hegagon.stopped,triangle.stopped,circle.stopped,alt,task,condition,target_resp.keys,target_resp.rt,rewCond,vts_fback.started,vts_fback.stopped,blockNum,norew_fback.started,norew_fback.stopped,top_target.stopped,tgt_fix.stopped,bot_target.stopped,target_resp.stopped,key_resp_2.keys,key_resp_2.rt,feedbk_text.started,feedbk_text.stopped,text_3.started,text_3.stopped,button.started,debrief.index,debrief.itemText,debrief.type,debrief.granularity,debrief.font,debrief.markerColor,debrief.response,debrief.rt,button.numClicks,button.timesOn,button.timesOff,participant,date,expName,psychopyVersion,frameRate,
,,,,,,,,,,,,,,,,,,,,,,,,,,,,,,,,,,,,,,,,,,,,,,,,,,,,,,22.227729825000097,space,18.83832664800002,,,,,,,,,,,,,,,,,,,,,,,,,,,,,,,,,,,,,,,,,,,,,,,,,,,,,,,,,,,,,,,,,,,,,,,,,,,,,,,,,,,,,,12531,2022-09-19_10h41.26.973,vts_reward_expectancy_OFFLINE,2022.2.4,59.92560787097398,
0,0,1,0,1,0,0,0,hexagon,triangle,0,0,0,0,0,0,0,6,,,,,,,,,,,,,,,,,,,,,,,,,,,,,,,,,,,,,,,,90.48619734400017,90.48619734400017,90.48619734400017,90.48619734400017,90.48619734400017,90.48619734400017,90.48619734400017,90.48619734400017,90.48619734400017,90.48619734400017,l,2.5095104210004138,10,10,0,93.0220682600002,94.52405197200005,,,,,,,,,,,,,,,,,,,,,,,,,,,,,,,,,,,,,,,,,,,,,,,,,,,,,,,,,,,,,,,,,,,,,12531,2022-09-19_10h41.26.973,vts_reward_expectancy_OFFLINE,2022.2.4,59.92560787097398,
0,0,1,0,0,0,0,1,hexagon,star,0,0,0,0,0,1,1,8,,,,,,,,,,,,,,,,,,,,,,,,,,,,,,,,,,,,,,,,95.02435724999987,95.02435724999987,95.02435724999987,95.02435724999987,95.02435724999987,95.02435724999987,95.02435724999987,95.02435724999987,95.02435724999987,95.02435724999987,a,1.0254377430001114,10,20,0,96.07560015199988,97.57732596100004,,,,,,,,,,,,,,,,,,,,,,,,,,,,,,,,,,,,,,,,,,,,,,,,,,,,,,,,,,,,,,,,,,,,,12531,2022-09-19_10h41.26.973,vts_reward_expectancy_OFFLINE,2022.2.4,59.92560787097398,
1,0,0,0,0,0,1,0,triangle,hexagon,0,0,0,0,0,2,2,1,,,,,,,,,,,,,,,,,,,,,,,,,,,,,,,,,,,,,,,,98.07776435000005,98.07776435000005,98.07776435000005,98.07776435000005,98.07776435000005,98.07776435000005,98.07776435000005,98.07776435000005,98.07776435000005,98.07776435000005,a,1.0283515760002047,1,21,0,99.12911346100009,100.63050917999999,,,,,,,,,,,,,,,,,,,,,,,,,,,,,,,,,,,,,,,,,,,,,,,,,,,,,,,,,,,,,,,,,,,,,12531,2022-09-19_10h41.26.973,vts_reward_expectancy_OFFLINE,2022.2.4,59.92560787097398,
0,1,0,0,0,0,1,0,circle,hexagon,0,0,0,0,0,3,3,4,,,,,,,,,,,,,,,,,,,,,,,,,,,,,,,,,,,,,,,,101.13110011900017,101.13110011900017,101.13110011900017,101.13110011900017,101.13110011900017,101.13110011900017,101.13110011900017,101.13110011900017,101.13110011900017,101.13110011900017,l,0.6391637900001115,10,31,0,101.79858666400014,103.30022957600022,,,,,,,,,,,,,,,,,,,,,,,,,,,,,,,,,,,,,,,,,,,,,,,,,,,,,,,,,,,,,,,,,,,,,12531,2022-09-19_10h41.26.973,vts_reward_expectancy_OFFLINE,2022.2.4,59.92560787097398,
0,0,1,0,0,1,0,0,hexagon,circle,0,0,0,0,0,4,4,7,,,,,,,,,,,,,,,,,,,,,,,,,,,,,,,,,,,,,,,,103.80072211400011,103.80072211400011,103.80072211400011,103.80072211400011,103.80072211400011,103.80072211400011,103.80072211400011,103.80072211400011,103.80072211400011,103.80072211400011,a,0.8512258020000445,10,41,0,104.66852049699992,106.17010821399981,106.17010821399981,,,,,,,,,,,,,,,,,,,,,,,,,,,,,,,,,,,,,,,,,,,,,,,,,,,,,,,,,,,,,,,,,,,,12531,2022-09-19_10h41.26.973,vts_reward_expectancy_OFFLINE,2022.2.4,59.92560787097398,
0,1,0,0,0,0,0,1,circle,star,0,0,0,0,0,5,5,5,,,,,,,,,,,,,,,,,,,,,,,,,,,,,,,,,,,,,,,,106.67050150100022,106.67050150100022,106.67050150100022,106.67050150100022,106.67050150100022,106.67050150100022,106.67050150100022,106.67050150100022,106.67050150100022,106.67050150100022,a,0.9329096179999397,1,42,0,107.62167422399989,109.12329688099999,,,,,,,,,,,,,,,,,,,,,,,,,,,,,,,,,,,,,,,,,,,,,,,,,,,,,,,,,,,,,,,,,,,,,12531,2022-09-19_10h41.26.973,vts_reward_expectancy_OFFLINE,2022.2.4,59.92560787097398,
1,0,0,0,0,1,0,0,triangle,circle,0,0,0,0,0,6,6,0,,,,,,,,,,,,,,,,,,,,,,,,,,,,,,,,,,,,,,,,109.62392098400005,109.62392098400005,109.62392098400005,109.62392098400005,109.62392098400005,109.62392098400005,109.62392098400005,109.62392098400005,109.62392098400005,109.62392098400005,a,0.7160087309998744,10,52,0,110.35818020099987,111.85968672499985,,,,,,,,,,,,,,,,,,,,,,,,,,,,,,,,,,,,,,,,,,,,,,,,,,,,,,,,,,,,,,,,,,,,,12531,2022-09-19_10h41.26.973,vts_reward_expectancy_OFFLINE,2022.2.4,59.92560787097398,
0,0,0,1,1,0,0,0,star,triangle,0,0,0,0,0,7,7,9,,,,,,,,,,,,,,,,,,,,,,,,,,,,,,,,,,,,,,,,112.36013249899997,112.36013249899997,112.36013249899997,112.36013249899997,112.36013249899997,112.36013249899997,112.36013249899997,112.36013249899997,112.36013249899997,112.36013249899997,l,0.6094777099997373,1,53,0,112.99417246600024,114.49602162100018,,,,,,,,,,,,,,,,,,,,,,,,,,,,,,,,,,,,,,,,,,,,,,,,,,,,,,,,,,,,,,,,,,,,,12531,2022-09-19_10h41.26.973,vts_reward_expectancy_OFFLINE,2022.2.4,59.92560787097398,
1,0,0,0,0,0,0,1,triangle,star,0,0,0,0,0,8,8,2,,,,,,,,,,,,,,,,,,,,,,,,,,,,,,,,,,,,,,,,114.99653934200023,114.99653934200023,114.99653934200023,114.99653934200023,114.99653934200023,114.99653934200023,114.99653934200023,114.99653934200023,114.99653934200023,114.99653934200023,l,0.7015057160001561,1,54,0,115.73069975899989,117.23224894099985,,,,,,,,,,,,,,,,,,,,,,,,,,,,,,,,,,,,,,,,,,,,,,,,,,,,,,,,,,,,,,,,,,,,,12531,2022-09-19_10h41.26.973,vts_reward_expectancy_OFFLINE,2022.2.4,59.92560787097398,
0,0,0,1,0,0,1,0,star,hexagon,0,0,0,0,0,9,9,11,,,,,,,,,,,,,,,,,,,,,,,,,,,,,,,,,,,,,,,,117.73293663499999,117.73293663499999,117.73293663499999,117.73293663499999,117.73293663499999,117.73293663499999,117.73293663499999,117.73293663499999,117.73293663499999,117.73293663499999,a,0.8134287259999837,10,64,0,118.56696783000007,120.06851697599996,,,,,,,,,,,,,,,,,,,,,,,,,,,,,,,,,,,,,,,,,,,,,,,,,,,,,,,,,,,,,,,,,,,,,12531,2022-09-19_10h41.26.973,vts_reward_expectancy_OFFLINE,2022.2.4,59.92560787097398,
0,1,0,0,1,0,0,0,circle,triangle,0,0,0,0,0,10,10,3,,,,,,,,,,,,,,,,,,,,,,,,,,,,,,,,,,,,,,,,120.56906845399999,120.56906845399999,120.56906845399999,120.56906845399999,120.56906845399999,120.56906845399999,120.56906845399999,120.56906845399999,120.56906845399999,120.56906845399999,l,0.6821547550002833,1,65,0,121.26997238900003,122.77155096500019,,,,,,,,,,,,,,,,,,,,,,,,,,,,,,,,,,,,,,,,,,,,,,,,,,,,,,,,,,,,,,,,,,,,,12531,2022-09-19_10h41.26.973,vts_reward_expectancy_OFFLINE,2022.2.4,59.92560787097398,
0,0,0,1,0,1,0,0,star ,circle,0,0,0,0,0,11,11,10,,,,,,,,,,,,,,,,,,,,,,,,,,,,,,,,,,,,,,,,123.27234714899987,123.27234714899987,123.27234714899987,123.27234714899987,123.27234714899987,123.27234714899987,123.27234714899987,123.27234714899987,123.27234714899987,123.27234714899987,l,0.5294170050001412,1,66,0,123.8229021090001,125.32451140500007,125.32451140500007,,,,,,,,,,,,,,,,,,,,,,,,,,,,,,,,,,,,,,,,,,,,,,,,,,,,,,,,,,,,,,,,,,,,12531,2022-09-19_10h41.26.973,vts_reward_expectancy_OFFLINE,2022.2.4,59.92560787097398,
0,0,0,1,1,0,0,0,star,triangle,0,0,0,0,1,0,12,9,,,,,,,,,,,,,,,,,,,,,,,,,,,,,,,,,,,,,,,,125.82498756999985,125.82498756999985,125.82498756999985,125.82498756999985,125.82498756999985,125.82498756999985,125.82498756999985,125.82498756999985,125.82498756999985,125.82498756999985,a,0.7132204380000076,10,76,0,126.55916942400017,128.06072620099985,,,,,,,,,,,,,,,,,,,,,,,,,,,,,,,,,,,,,,,,,,,,,,,,,,,,,,,,,,,,,,,,,,,,,12531,2022-09-19_10h41.26.973,vts_reward_expectancy_OFFLINE,2022.2.4,59.92560787097398,
0,0,1,0,0,0,0,1,hexagon,star,0,0,0,0,1,1,13,8,,,,,,,,,,,,,,,,,,,,,,,,,,,,,,,,,,,,,,,,128.561320326,128.561320326,128.561320326,128.561320326,128.561320326,128.561320326,128.561320326,128.561320326,128.561320326,128.561320326,a,1.0809225450002486,1,77,0,129.6626692499999,131.16433112100003,,,,,,,,,,,,,,,,,,,,,,,,,,,,,,,,,,,,,,,,,,,,,,,,,,,,,,,,,,,,,,,,,,,,,12531,2022-09-19_10h41.26.973,vts_reward_expectancy_OFFLINE,2022.2.4,59.92560787097398,
0,0,1,0,0,1,0,0,hexagon,circle,0,0,0,0,1,2,14,7,,,,,,,,,,,,,,,,,,,,,,,,,,,,,,,,,,,,,,,,131.66482042100006,131.66482042100006,131.66482042100006,131.66482042100006,131.66482042100006,131.66482042100006,131.66482042100006,131.66482042100006,131.66482042100006,131.66482042100006,l,0.6183052820001649,10,87,0,132.31558233399983,133.81730837199984,,,,,,,,,,,,,,,,,,,,,,,,,,,,,,,,,,,,,,,,,,,,,,,,,,,,,,,,,,,,,,,,,,,,,12531,2022-09-19_10h41.26.973,vts_reward_expectancy_OFFLINE,2022.2.4,59.92560787097398,
1,0,0,0,0,1,0,0,triangle,circle,0,0,0,0,1,3,15,0,,,,,,,,,,,,,,,,,,,,,,,,,,,,,,,,,,,,,,,,134.317750359,134.317750359,134.317750359,134.317750359,134.317750359,134.317750359,134.317750359,134.317750359,134.317750359,134.317750359,l,1.141509206000137,1,88,0,135.48590340600003,136.98748041499994,,,,,,,,,,,,,,,,,,,,,,,,,,,,,,,,,,,,,,,,,,,,,,,,,,,,,,,,,,,,,,,,,,,,,12531,2022-09-19_10h41.26.973,vts_reward_expectancy_OFFLINE,2022.2.4,59.92560787097398,
0,1,0,0,0,0,0,1,circle,star,0,0,0,0,1,4,16,5,,,,,,,,,,,,,,,,,,,,,,,,,,,,,,,,,,,,,,,,137.4880049540002,137.4880049540002,137.4880049540002,137.4880049540002,137.4880049540002,137.4880049540002,137.4880049540002,137.4880049540002,137.4880049540002,137.4880049540002,a,0.5696787990000303,10,98,0,138.08856369500018,139.58989121100012,139.58989121100012,,,,,,,,,,,,,,,,,,,,,,,,,,,,,,,,,,,,,,,,,,,,,,,,,,,,,,,,,,,,,,,,,,,,12531,2022-09-19_10h41.26.973,vts_reward_expectancy_OFFLINE,2022.2.4,59.92560787097398,
1,0,0,0,0,0,0,1,triangle,star,0,0,0,0,1,5,17,2,,,,,,,,,,,,,,,,,,,,,,,,,,,,,,,,,,,,,,,,140.09056119100023,140.09056119100023,140.09056119100023,140.09056119100023,140.09056119100023,140.09056119100023,140.09056119100023,140.09056119100023,140.09056119100023,140.09056119100023,l,0.832014977000199,10,108,0,140.94180292600004,142.443292422,,,,,,,,,,,,,,,,,,,,,,,,,,,,,,,,,,,,,,,,,,,,,,,,,,,,,,,,,,,,,,,,,,,,,12531,2022-09-19_10h41.26.973,vts_reward_expectancy_OFFLINE,2022.2.4,59.92560787097398,
0,0,0,1,0,1,0,0,star ,circle,0,0,0,0,1,6,18,10,,,,,,,,,,,,,,,,,,,,,,,,,,,,,,,,,,,,,,,,142.94396104099997,142.94396104099997,142.94396104099997,142.94396104099997,142.94396104099997,142.94396104099997,142.94396104099997,142.94396104099997,142.94396104099997,142.94396104099997,a,0.5537731060003352,10,118,0,143.5279889059998,145.02959856500001,,,,,,,,,,,,,,,,,,,,,,,,,,,,,,,,,,,,,,,,,,,,,,,,,,,,,,,,,,,,,,,,,,,,,12531,2022-09-19_10h41.26.973,vts_reward_expectancy_OFFLINE,2022.2.4,59.92560787097398,
1,0,0,0,0,0,1,0,triangle,hexagon,0,0,0,0,1,7,19,1,,,,,,,,,,,,,,,,,,,,,,,,,,,,,,,,,,,,,,,,145.5299676919999,145.5299676919999,145.5299676919999,145.5299676919999,145.5299676919999,145.5299676919999,145.5299676919999,145.5299676919999,145.5299676919999,145.5299676919999,a,0.9853239779999967,1,119,0,146.54794998599982,148.0494445469999,,,,,,,,,,,,,,,,,,,,,,,,,,,,,,,,,,,,,,,,,,,,,,,,,,,,,,,,,,,,,,,,,,,,,12531,2022-09-19_10h41.26.973,vts_reward_expectancy_OFFLINE,2022.2.4,59.92560787097398,
0,1,0,0,1,0,0,0,circle,triangle,0,0,0,0,1,8,20,3,,,,,,,,,,,,,,,,,,,,,,,,,,,,,,,,,,,,,,,,148.55015301100002,148.55015301100002,148.55015301100002,148.55015301100002,148.55015301100002,148.55015301100002,148.55015301100002,148.55015301100002,148.55015301100002,148.55015301100002,a,0.5719527360001848,10,129,0,149.15081970400024,150.65228010400006,150.65228010400006,,,,,,,,,,,,,,,,,,,,,,,,,,,,,,,,,,,,,,,,,,,,,,,,,,,,,,,,,,,,,,,,,,,,12531,2022-09-19_10h41.26.973,vts_reward_expectancy_OFFLINE,2022.2.4,59.92560787097398,
0,0,0,1,0,0,1,0,star,hexagon,0,0,0,0,1,9,21,11,,,,,,,,,,,,,,,,,,,,,,,,,,,,,,,,,,,,,,,,151.15304708099984,151.15304708099984,151.15304708099984,151.15304708099984,151.15304708099984,151.15304708099984,151.15304708099984,151.15304708099984,151.15304708099984,151.15304708099984,a,0.6579224330002944,1,130,0,151.83687279000014,153.33874755399984,153.33874755399984,,,,,,,,,,,,,,,,,,,,,,,,,,,,,,,,,,,,,,,,,,,,,,,,,,,,,,,,,,,,,,,,,,,,12531,2022-09-19_10h41.26.973,vts_reward_expectancy_OFFLINE,2022.2.4,59.92560787097398,
0,0,1,0,1,0,0,0,hexagon,triangle,0,0,0,0,1,10,22,6,,,,,,,,,,,,,,,,,,,,,,,,,,,,,,,,,,,,,,,,153.8392850350001,153.8392850350001,153.8392850350001,153.8392850350001,153.8392850350001,153.8392850350001,153.8392850350001,153.8392850350001,153.8392850350001,153.8392850350001,l,0.5078806050000821,1,131,0,154.37320623100004,155.87488139100014,,,,,,,,,,,,,,,,,,,,,,,,,,,,,,,,,,,,,,,,,,,,,,,,,,,,,,,,,,,,,,,,,,,,,12531,2022-09-19_10h41.26.973,vts_reward_expectancy_OFFLINE,2022.2.4,59.92560787097398,
0,1,0,0,0,0,1,0,circle,hexagon,0,0,0,0,1,11,23,4,,,,,,,,,,,,,,,,,,,,,,,,,,,,,,,,,,,,,,,,156.3755215609999,156.3755215609999,156.3755215609999,156.3755215609999,156.3755215609999,156.3755215609999,156.3755215609999,156.3755215609999,156.3755215609999,156.3755215609999,a,0.658708931000092,10,141,0,157.05954231099986,158.56112929900019,,,,,,,,,,,,,,,,,,,,,,,,,,,,,,,,,,,,,,,,,,,,,,,,,,,,,,,,,,,,,,,,,,,,,12531,2022-09-19_10h41.26.973,vts_reward_expectancy_OFFLINE,2022.2.4,59.92560787097398,
1,0,0,0,0,1,0,0,triangle,circle,0,0,0,0,2,0,24,0,,,,,,,,,,,,,,,,,,,,,,,,,,,,,,,,,,,,,,,,159.0618477150001,159.0618477150001,159.0618477150001,159.0618477150001,159.0618477150001,159.0618477150001,159.0618477150001,159.0618477150001,159.0618477150001,159.0618477150001,l,0.7655441609999798,10,151,0,159.84601994600007,161.34745624100015,,,,,,,,,,,,,,,,,,,,,,,,,,,,,,,,,,,,,,,,,,,,,,,,,,,,,,,,,,,,,,,,,,,,,12531,2022-09-19_10h41.26.973,vts_reward_expectancy_OFFLINE,2022.2.4,59.92560787097398,
0,0,0,1,1,0,0,0,star,triangle,0,0,0,0,2,1,25,9,,,,,,,,,,,,,,,,,,,,,,,,,,,,,,,,,,,,,,,,161.84796904099994,161.84796904099994,161.84796904099994,161.84796904099994,161.84796904099994,161.84796904099994,161.84796904099994,161.84796904099994,161.84796904099994,161.84796904099994,a,0.9628022890001375,1,152,0,162.83240561000002,164.3341639209998,,,,,,,,,,,,,,,,,,,,,,,,,,,,,,,,,,,,,,,,,,,,,,,,,,,,,,,,,,,,,,,,,,,,,12531,2022-09-19_10h41.26.973,vts_reward_expectancy_OFFLINE,2022.2.4,59.92560787097398,
1,0,0,0,0,0,1,0,triangle,hexagon,0,0,0,0,2,2,26,1,,,,,,,,,,,,,,,,,,,,,,,,,,,,,,,,,,,,,,,,164.8347364209999,164.8347364209999,164.8347364209999,164.8347364209999,164.8347364209999,164.8347364209999,164.8347364209999,164.8347364209999,164.8347364209999,164.8347364209999,l,1.1524519590002456,10,162,0,166.01943829099991,167.52096493399995,,,,,,,,,,,,,,,,,,,,,,,,,,,,,,,,,,,,,,,,,,,,,,,,,,,,,,,,,,,,,,,,,,,,,12531,2022-09-19_10h41.26.973,vts_reward_expectancy_OFFLINE,2022.2.4,59.92560787097398,
0,0,0,1,0,0,1,0,star,hexagon,0,0,0,0,2,3,27,11,,,,,,,,,,,,,,,,,,,,,,,,,,,,,,,,,,,,,,,,168.02159056400023,168.02159056400023,168.02159056400023,168.02159056400023,168.02159056400023,168.02159056400023,168.02159056400023,168.02159056400023,168.02159056400023,168.02159056400023,a,0.8851276310001595,1,163,0,168.93937196000024,170.4408780220001,,,,,,,,,,,,,,,,,,,,,,,,,,,,,,,,,,,,,,,,,,,,,,,,,,,,,,,,,,,,,,,,,,,,,12531,2022-09-19_10h41.26.973,vts_reward_expectancy_OFFLINE,2022.2.4,59.92560787097398,
0,0,1,0,0,0,0,1,hexagon,star,0,0,0,0,2,4,28,8,,,,,,,,,,,,,,,,,,,,,,,,,,,,,,,,,,,,,,,,170.9415656770002,170.9415656770002,170.9415656770002,170.9415656770002,170.9415656770002,170.9415656770002,170.9415656770002,170.9415656770002,170.9415656770002,170.9415656770002,l,0.7505194860000302,10,173,0,171.7090945,173.21057765500018,173.21057765500018,,,,,,,,,,,,,,,,,,,,,,,,,,,,,,,,,,,,,,,,,,,,,,,,,,,,,,,,,,,,,,,,,,,,12531,2022-09-19_10h41.26.973,vts_reward_expectancy_OFFLINE,2022.2.4,59.92560787097398,
1,0,0,0,0,0,0,1,triangle,star,0,0,0,0,2,5,29,2,,,,,,,,,,,,,,,,,,,,,,,,,,,,,,,,,,,,,,,,173.71129624600007,173.71129624600007,173.71129624600007,173.71129624600007,173.71129624600007,173.71129624600007,173.71129624600007,173.71129624600007,173.71129624600007,173.71129624600007,l,0.827337524000086,1,174,0,174.5621784509999,176.0639197710002,,,,,,,,,,,,,,,,,,,,,,,,,,,,,,,,,,,,,,,,,,,,,,,,,,,,,,,,,,,,,,,,,,,,,12531,2022-09-19_10h41.26.973,vts_reward_expectancy_OFFLINE,2022.2.4,59.92560787097398,
0,0,1,0,0,1,0,0,hexagon,circle,0,0,0,0,2,6,30,7,,,,,,,,,,,,,,,,,,,,,,,,,,,,,,,,,,,,,,,,176.56438313699982,176.56438313699982,176.56438313699982,176.56438313699982,176.56438313699982,176.56438313699982,176.56438313699982,176.56438313699982,176.56438313699982,176.56438313699982,l,0.7185699589999786,1,175,0,177.31504757899984,178.81683511099982,,,,,,,,,,,,,,,,,,,,,,,,,,,,,,,,,,,,,,,,,,,,,,,,,,,,,,,,,,,,,,,,,,,,,12531,2022-09-19_10h41.26.973,vts_reward_expectancy_OFFLINE,2022.2.4,59.92560787097398,
0,1,0,0,1,0,0,0,circle,triangle,0,0,0,0,2,7,31,3,,,,,,,,,,,,,,,,,,,,,,,,,,,,,,,,,,,,,,,,179.3171901589999,179.3171901589999,179.3171901589999,179.3171901589999,179.3171901589999,179.3171901589999,179.3171901589999,179.3171901589999,179.3171901589999,179.3171901589999,a,1.0285874140004125,1,176,0,180.36838359400008,181.87022018200014,,,,,,,,,,,,,,,,,,,,,,,,,,,,,,,,,,,,,,,,,,,,,,,,,,,,,,,,,,,,,,,,,,,,,12531,2022-09-19_10h41.26.973,vts_reward_expectancy_OFFLINE,2022.2.4,59.92560787097398,
0,0,1,0,1,0,0,0,hexagon,triangle,0,0,0,0,2,8,32,6,,,,,,,,,,,,,,,,,,,,,,,,,,,,,,,,,,,,,,,,182.37081557700003,182.37081557700003,182.37081557700003,182.37081557700003,182.37081557700003,182.37081557700003,182.37081557700003,182.37081557700003,182.37081557700003,182.37081557700003,a,1.0403024600000208,10,186,0,183.43845714100007,184.94048609599986,,,,,,,,,,,,,,,,,,,,,,,,,,,,,,,,,,,,,,,,,,,,,,,,,,,,,,,,,,,,,,,,,,,,,12531,2022-09-19_10h41.26.973,vts_reward_expectancy_OFFLINE,2022.2.4,59.92560787097398,
0,1,0,0,0,0,0,1,circle,star,0,0,0,0,2,9,33,5,,,,,,,,,,,,,,,,,,,,,,,,,,,,,,,,,,,,,,,,185.44086603100004,185.44086603100004,185.44086603100004,185.44086603100004,185.44086603100004,185.44086603100004,185.44086603100004,185.44086603100004,185.44086603100004,185.44086603100004,l,0.6247945439999967,10,196,0,186.09158978200003,187.5933242709998,,,,,,,,,,,,,,,,,,,,,,,,,,,,,,,,,,,,,,,,,,,,,,,,,,,,,,,,,,,,,,,,,,,,,12531,2022-09-19_10h41.26.973,vts_reward_expectancy_OFFLINE,2022.2.4,59.92560787097398,
0,1,0,0,0,0,1,0,circle,hexagon,0,0,0,0,2,10,34,4,,,,,,,,,,,,,,,,,,,,,,,,,,,,,,,,,,,,,,,,188.09372807499994,188.09372807499994,188.09372807499994,188.09372807499994,188.09372807499994,188.09372807499994,188.09372807499994,188.09372807499994,188.09372807499994,188.09372807499994,l,1.860784676000094,10,206,0,189.97915778100014,191.48091031500007,,,,,,,,,,,,,,,,,,,,,,,,,,,,,,,,,,,,,,,,,,,,,,,,,,,,,,,,,,,,,,,,,,,,,12531,2022-09-19_10h41.26.973,vts_reward_expectancy_OFFLINE,2022.2.4,59.92560787097398,
0,0,0,1,0,1,0,0,star ,circle,0,0,0,0,2,11,35,10,,,,,,,,,,,,,,,,,,,,,,,,,,,,,,,,,,,,,,,,191.98128933099997,191.98128933099997,191.98128933099997,191.98128933099997,191.98128933099997,191.98128933099997,191.98128933099997,191.98128933099997,191.98128933099997,191.98128933099997,l,1.197119787000247,1,207,0,193.19940208100024,194.70123555600003,,,,,,,,,,,,,,,,,,,,,,,,,,,,,,,,,,,,,,,,,,,,,,,,,,,,,,,,,,,,,,,,,,,,,12531,2022-09-19_10h41.26.973,vts_reward_expectancy_OFFLINE,2022.2.4,59.92560787097398,
0,0,1,0,1,0,0,0,hexagon,triangle,1,0,1,0,0,0,0,6,,,,,,,,,,,,,,,,,,,,,,,,,,,,,,,,,,,,,,,,201.72566657400012,201.72566657400012,201.72566657400012,201.72566657400012,201.72566657400012,201.72566657400012,201.72566657400012,201.72566657400012,201.72566657400012,201.72566657400012,a,1.1574855859998934,10,217,1,202.90997474899996,204.41166750999992,,,,,,,,,,,,,,,,,,,,,,,,,,,,,,,,,,,,,,,,,,,,,,,,,,,,,,,,,,,,,,,,,,,,,12531,2022-09-19_10h41.26.973,vts_reward_expectancy_OFFLINE,2022.2.4,59.92560787097398,
1,0,0,0,0,1,0,0,triangle,circle,1,0,1,0,0,1,1,0,,,,,,,,,,,,,,,,,,,,,,,,,,,,,,,,,,,,,,,,204.91243141099994,204.91243141099994,204.91243141099994,204.91243141099994,204.91243141099994,204.91243141099994,204.91243141099994,204.91243141099994,204.91243141099994,204.91243141099994,l,0.5691345560003356,10,227,1,205.51288656099996,207.0147196009998,,,,,,,,,,,,,,,,,,,,,,,,,,,,,,,,,,,,,,,,,,,,,,,,,,,,,,,,,,,,,,,,,,,,,12531,2022-09-19_10h41.26.973,vts_reward_expectancy_OFFLINE,2022.2.4,59.92560787097398,
0,1,0,0,0,0,0,1,circle,star,1,0,1,0,0,2,2,5,,,,,,,,,,,,,,,,,,,,,,,,,,,,,,,,,,,,,,,,207.515248231,207.515248231,207.515248231,207.515248231,207.515248231,207.515248231,207.515248231,207.515248231,207.515248231,207.515248231,a,0.462608844999977,1,228,1,207.9989874349999,209.50065529899985,,,,,,,,,,,,,,,,,,,,,,,,,,,,,,,,,,,,,,,,,,,,,,,,,,,,,,,,,,,,,,,,,,,,,12531,2022-09-19_10h41.26.973,vts_reward_expectancy_OFFLINE,2022.2.4,59.92560787097398,
1,0,0,0,0,0,1,0,triangle,hexagon,1,0,1,0,0,3,3,1,,,,,,,,,,,,,,,,,,,,,,,,,,,,,,,,,,,,,,,,210.00141551900015,210.00141551900015,210.00141551900015,210.00141551900015,210.00141551900015,210.00141551900015,210.00141551900015,210.00141551900015,210.00141551900015,210.00141551900015,a,0.584923549999985,1,229,1,210.61854198399988,212.12041941899997,,,,,,,,,,,,,,,,,,,,,,,,,,,,,,,,,,,,,,,,,,,,,,,,,,,,,,,,,,,,,,,,,,,,,12531,2022-09-19_10h41.26.973,vts_reward_expectancy_OFFLINE,2022.2.4,59.92560787097398,
0,1,0,0,1,0,0,0,circle,triangle,1,0,1,0,0,4,4,3,,,,,,,,,,,,,,,,,,,,,,,,,,,,,,,,,,,,,,,,212.62070437700004,212.62070437700004,212.62070437700004,212.62070437700004,212.62070437700004,212.62070437700004,212.62070437700004,212.62070437700004,212.62070437700004,212.62070437700004,a,0.5099377350002214,1,230,1,213.154651672,214.65648949200022,,,,,,,,,,,,,,,,,,,,,,,,,,,,,,,,,,,,,,,,,,,,,,,,,,,,,,,,,,,,,,,,,,,,,12531,2022-09-19_10h41.26.973,vts_reward_expectancy_OFFLINE,2022.2.4,59.92560787097398,
0,0,0,1,1,0,0,0,star,triangle,1,0,1,0,0,5,5,9,,,,,,,,,,,,,,,,,,,,,,,,,,,,,,,,,,,,,,,,215.1571334700002,215.1571334700002,215.1571334700002,215.1571334700002,215.1571334700002,215.1571334700002,215.1571334700002,215.1571334700002,215.1571334700002,215.1571334700002,a,0.8126343260000795,1,231,1,215.9910790859999,217.49287496599982,,,,,,,,,,,,,,,,,,,,,,,,,,,,,,,,,,,,,,,,,,,,,,,,,,,,,,,,,,,,,,,,,,,,,12531,2022-09-19_10h41.26.973,vts_reward_expectancy_OFFLINE,2022.2.4,59.92560787097398,
0,1,0,0,0,0,1,0,circle,hexagon,1,0,1,0,0,6,6,4,,,,,,,,,,,,,,,,,,,,,,,,,,,,,,,,,,,,,,,,217.99350437500016,217.99350437500016,217.99350437500016,217.99350437500016,217.99350437500016,217.99350437500016,217.99350437500016,217.99350437500016,217.99350437500016,217.99350437500016,a,0.601267289000134,1,232,1,218.62743864499998,220.1292248220002,,,,,,,,,,,,,,,,,,,,,,,,,,,,,,,,,,,,,,,,,,,,,,,,,,,,,,,,,,,,,,,,,,,,,12531,2022-09-19_10h41.26.973,vts_reward_expectancy_OFFLINE,2022.2.4,59.92560787097398,
0,0,0,1,0,1,0,0,star ,circle,1,0,1,0,0,7,7,10,,,,,,,,,,,,,,,,,,,,,,,,,,,,,,,,,,,,,,,,220.6295260060001,220.6295260060001,220.6295260060001,220.6295260060001,220.6295260060001,220.6295260060001,220.6295260060001,220.6295260060001,220.6295260060001,220.6295260060001,l,0.5017178230000354,1,233,1,221.1633637650002,222.66521449399988,,,,,,,,,,,,,,,,,,,,,,,,,,,,,,,,,,,,,,,,,,,,,,,,,,,,,,,,,,,,,,,,,,,,,12531,2022-09-19_10h41.26.973,vts_reward_expectancy_OFFLINE,2022.2.4,59.92560787097398,
1,0,0,0,0,0,0,1,triangle,star,1,0,1,0,0,8,8,2,,,,,,,,,,,,,,,,,,,,,,,,,,,,,,,,,,,,,,,,223.16581129899987,223.16581129899987,223.16581129899987,223.16581129899987,223.16581129899987,223.16581129899987,223.16581129899987,223.16581129899987,223.16581129899987,223.16581129899987,l,0.8278569710000738,1,234,1,224.01665413499995,225.51837406899995,,,,,,,,,,,,,,,,,,,,,,,,,,,,,,,,,,,,,,,,,,,,,,,,,,,,,,,,,,,,,,,,,,,,,12531,2022-09-19_10h41.26.973,vts_reward_expectancy_OFFLINE,2022.2.4,59.92560787097398,
0,0,0,1,0,0,1,0,star,hexagon,1,0,1,0,0,9,9,11,,,,,,,,,,,,,,,,,,,,,,,,,,,,,,,,,,,,,,,,226.01901955899984,226.01901955899984,226.01901955899984,226.01901955899984,226.01901955899984,226.01901955899984,226.01901955899984,226.01901955899984,226.01901955899984,226.01901955899984,a,0.5115436550004233,10,244,1,226.55290671900002,228.054415996,,,,,,,,,,,,,,,,,,,,,,,,,,,,,,,,,,,,,,,,,,,,,,,,,,,,,,,,,,,,,,,,,,,,,12531,2022-09-19_10h41.26.973,vts_reward_expectancy_OFFLINE,2022.2.4,59.92560787097398,
0,0,1,0,0,0,0,1,hexagon,star,1,0,1,0,0,10,10,8,,,,,,,,,,,,,,,,,,,,,,,,,,,,,,,,,,,,,,,,228.5549450049998,228.5549450049998,228.5549450049998,228.5549450049998,228.5549450049998,228.5549450049998,228.5549450049998,228.5549450049998,228.5549450049998,228.5549450049998,a,0.4635205230001702,10,254,1,229.03887179000003,230.54044406100002,,,,,,,,,,,,,,,,,,,,,,,,,,,,,,,,,,,,,,,,,,,,,,,,,,,,,,,,,,,,,,,,,,,,,12531,2022-09-19_10h41.26.973,vts_reward_expectancy_OFFLINE,2022.2.4,59.92560787097398,
0,0,1,0,0,1,0,0,hexagon,circle,1,0,1,0,0,11,11,7,,,,,,,,,,,,,,,,,,,,,,,,,,,,,,,,,,,,,,,,231.04096509200008,231.04096509200008,231.04096509200008,231.04096509200008,231.04096509200008,231.04096509200008,231.04096509200008,231.04096509200008,231.04096509200008,231.04096509200008,l,0.5366630200001055,1,255,1,231.6084225139998,233.1099692769999,,,,,,,,,,,,,,,,,,,,,,,,,,,,,,,,,,,,,,,,,,,,,,,,,,,,,,,,,,,,,,,,,,,,,12531,2022-09-19_10h41.26.973,vts_reward_expectancy_OFFLINE,2022.2.4,59.92560787097398,
1,0,0,0,0,1,0,0,triangle,circle,1,0,1,0,1,0,12,0,,,,,,,,,,,,,,,,,,,,,,,,,,,,,,,,,,,,,,,,233.61069667399988,233.61069667399988,233.61069667399988,233.61069667399988,233.61069667399988,233.61069667399988,233.61069667399988,233.61069667399988,233.61069667399988,233.61069667399988,a,0.5915597250000246,10,265,1,234.22802873599994,235.72962197200013,,,,,,,,,,,,,,,,,,,,,,,,,,,,,,,,,,,,,,,,,,,,,,,,,,,,,,,,,,,,,,,,,,,,,12531,2022-09-19_10h41.26.973,vts_reward_expectancy_OFFLINE,2022.2.4,59.92560787097398,
1,0,0,0,0,0,0,1,triangle,star,1,0,1,0,1,1,13,2,,,,,,,,,,,,,,,,,,,,,,,,,,,,,,,,,,,,,,,,236.23015115999988,236.23015115999988,236.23015115999988,236.23015115999988,236.23015115999988,236.23015115999988,236.23015115999988,236.23015115999988,236.23015115999988,236.23015115999988,l,0.5173680670000067,1,266,1,236.76403719200016,238.26578927899982,238.26578927899982,238.7661869550002,,,,,,,,,,,,,,,,,,,,,,,,,,,,,,,,,,,,,,,,,,,,,,,,,,,,,,,,,,,,,,,,,,,12531,2022-09-19_10h41.26.973,vts_reward_expectancy_OFFLINE,2022.2.4,59.92560787097398,
1,0,0,0,0,0,1,0,triangle,hexagon,1,0,1,0,1,2,14,1,,,,,,,,,,,,,,,,,,,,,,,,,,,,,,,,,,,,,,,,238.7661869550002,238.7661869550002,238.7661869550002,238.7661869550002,238.7661869550002,238.7661869550002,238.7661869550002,238.7661869550002,238.7661869550002,238.7661869550002,a,0.4850538140003664,10,276,1,239.28363119200003,240.78543028500007,240.78543028500007,241.28572321399997,,,,,,,,,,,,,,,,,,,,,,,,,,,,,,,,,,,,,,,,,,,,,,,,,,,,,,,,,,,,,,,,,,,12531,2022-09-19_10h41.26.973,vts_reward_expectancy_OFFLINE,2022.2.4,59.92560787097398,
0,1,0,0,0,0,0,1,circle,star,1,0,1,0,1,3,15,5,,,,,,,,,,,,,,,,,,,,,,,,,,,,,,,,,,,,,,,,241.28572321399997,241.28572321399997,241.28572321399997,241.28572321399997,241.28572321399997,241.28572321399997,241.28572321399997,241.28572321399997,241.28572321399997,241.28572321399997,a,0.5092347050003809,1,277,1,241.81976081899984,243.32145712500005,,,,,,,,,,,,,,,,,,,,,,,,,,,,,,,,,,,,,,,,,,,,,,,,,,,,,,,,,,,,,,,,,,,,,12531,2022-09-19_10h41.26.973,vts_reward_expectancy_OFFLINE,2022.2.4,59.92560787097398,
0,0,1,0,1,0,0,0,hexagon,triangle,1,0,1,0,1,4,16,6,,,,,,,,,,,,,,,,,,,,,,,,,,,,,,,,,,,,,,,,243.8218293169998,243.8218293169998,243.8218293169998,243.8218293169998,243.8218293169998,243.8218293169998,243.8218293169998,243.8218293169998,243.8218293169998,243.8218293169998,l,0.5079808079999566,1,278,1,244.35588331000008,245.85767000499982,,,,,,,,,,,,,,,,,,,,,,,,,,,,,,,,,,,,,,,,,,,,,,,,,,,,,,,,,,,,,,,,,,,,,12531,2022-09-19_10h41.26.973,vts_reward_expectancy_OFFLINE,2022.2.4,59.92560787097398,
0,1,0,0,0,0,1,0,circle,hexagon,1,0,1,0,1,5,17,4,,,,,,,,,,,,,,,,,,,,,,,,,,,,,,,,,,,,,,,,246.35803152500011,246.35803152500011,246.35803152500011,246.35803152500011,246.35803152500011,246.35803152500011,246.35803152500011,246.35803152500011,246.35803152500011,246.35803152500011,a,0.45183005099988804,10,288,1,246.84182328899988,248.34347610399982,,,,,,,,,,,,,,,,,,,,,,,,,,,,,,,,,,,,,,,,,,,,,,,,,,,,,,,,,,,,,,,,,,,,,12531,2022-09-19_10h41.26.973,vts_reward_expectancy_OFFLINE,2022.2.4,59.92560787097398,
0,0,1,0,0,0,0,1,hexagon,star,1,0,1,0,1,6,18,8,,,,,,,,,,,,,,,,,,,,,,,,,,,,,,,,,,,,,,,,248.84405012100024,248.84405012100024,248.84405012100024,248.84405012100024,248.84405012100024,248.84405012100024,248.84405012100024,248.84405012100024,248.84405012100024,248.84405012100024,a,0.5751145190001807,10,298,1,249.4448050000001,250.94625327699987,,,,,,,,,,,,,,,,,,,,,,,,,,,,,,,,,,,,,,,,,,,,,,,,,,,,,,,,,,,,,,,,,,,,,12531,2022-09-19_10h41.26.973,vts_reward_expectancy_OFFLINE,2022.2.4,59.92560787097398,
0,0,0,1,1,0,0,0,star,triangle,1,0,1,0,1,7,19,9,,,,,,,,,,,,,,,,,,,,,,,,,,,,,,,,,,,,,,,,251.44680823399995,251.44680823399995,251.44680823399995,251.44680823399995,251.44680823399995,251.44680823399995,251.44680823399995,251.44680823399995,251.44680823399995,251.44680823399995,a,0.4915048510001725,10,308,1,251.96404656100003,253.4658972440002,,,,,,,,,,,,,,,,,,,,,,,,,,,,,,,,,,,,,,,,,,,,,,,,,,,,,,,,,,,,,,,,,,,,,12531,2022-09-19_10h41.26.973,vts_reward_expectancy_OFFLINE,2022.2.4,59.92560787097398,
0,0,1,0,0,1,0,0,hexagon,circle,1,0,1,0,1,8,20,7,,,,,,,,,,,,,,,,,,,,,,,,,,,,,,,,,,,,,,,,253.96637563500008,253.96637563500008,253.96637563500008,253.96637563500008,253.96637563500008,253.96637563500008,253.96637563500008,253.96637563500008,253.96637563500008,253.96637563500008,l,0.4763772199999039,1,309,1,254.46692747099996,255.96863610899982,,,,,,,,,,,,,,,,,,,,,,,,,,,,,,,,,,,,,,,,,,,,,,,,,,,,,,,,,,,,,,,,,,,,,12531,2022-09-19_10h41.26.973,vts_reward_expectancy_OFFLINE,2022.2.4,59.92560787097398,
0,0,0,1,0,0,1,0,star,hexagon,1,0,1,0,1,9,21,11,,,,,,,,,,,,,,,,,,,,,,,,,,,,,,,,,,,,,,,,256.4692779510001,256.4692779510001,256.4692779510001,256.4692779510001,256.4692779510001,256.4692779510001,256.4692779510001,256.4692779510001,256.4692779510001,256.4692779510001,a,0.30125429600047937,10,319,1,256.80284596499996,258.304721081,,,,,,,,,,,,,,,,,,,,,,,,,,,,,,,,,,,,,,,,,,,,,,,,,,,,,,,,,,,,,,,,,,,,,12531,2022-09-19_10h41.26.973,vts_reward_expectancy_OFFLINE,2022.2.4,59.92560787097398,
0,1,0,0,1,0,0,0,circle,triangle,1,0,1,0,1,10,22,3,,,,,,,,,,,,,,,,,,,,,,,,,,,,,,,,,,,,,,,,258.80514660100016,258.80514660100016,258.80514660100016,258.80514660100016,258.80514660100016,258.80514660100016,258.80514660100016,258.80514660100016,258.80514660100016,258.80514660100016,a,0.524832349999997,10,329,1,259.3557417100001,260.857314675,,,,,,,,,,,,,,,,,,,,,,,,,,,,,,,,,,,,,,,,,,,,,,,,,,,,,,,,,,,,,,,,,,,,,12531,2022-09-19_10h41.26.973,vts_reward_expectancy_OFFLINE,2022.2.4,59.92560787097398,
0,0,0,1,0,1,0,0,star ,circle,1,0,1,0,1,11,23,10,,,,,,,,,,,,,,,,,,,,,,,,,,,,,,,,,,,,,,,,261.35787988899983,261.35787988899983,261.35787988899983,261.35787988899983,261.35787988899983,261.35787988899983,261.35787988899983,261.35787988899983,261.35787988899983,261.35787988899983,l,0.28469852699981857,1,330,1,261.67498878100014,263.1767928710001,,,,,,,,,,,,,,,,,,,,,,,,,,,,,,,,,,,,,,,,,,,,,,,,,,,,,,,,,,,,,,,,,,,,,12531,2022-09-19_10h41.26.973,vts_reward_expectancy_OFFLINE,2022.2.4,59.92560787097398,
0,0,1,0,0,1,0,0,hexagon,circle,1,0,1,0,2,0,24,7,,,,,,,,,,,,,,,,,,,,,,,,,,,,,,,,,,,,,,,,263.6771448069999,263.6771448069999,263.6771448069999,263.6771448069999,263.6771448069999,263.6771448069999,263.6771448069999,263.6771448069999,263.6771448069999,263.6771448069999,a,0.3091682160002165,1,331,1,264.01072096999997,265.51250002000006,265.51250002000006,266.01291458100013,,,,,,,,,,,,,,,,,,,,,,,,,,,,,,,,,,,,,,,,,,,,,,,,,,,,,,,,,,,,,,,,,,,12531,2022-09-19_10h41.26.973,vts_reward_expectancy_OFFLINE,2022.2.4,59.92560787097398,
0,0,1,0,1,0,0,0,hexagon,triangle,1,0,1,0,2,1,25,6,,,,,,,,,,,,,,,,,,,,,,,,,,,,,,,,,,,,,,,,266.01291458100013,266.01291458100013,266.01291458100013,266.01291458100013,266.01291458100013,266.01291458100013,266.01291458100013,266.01291458100013,266.01291458100013,266.01291458100013,l,0.37379804400006833,1,332,1,266.41334129999996,267.9150221519999,,,,,,,,,,,,,,,,,,,,,,,,,,,,,,,,,,,,,,,,,,,,,,,,,,,,,,,,,,,,,,,,,,,,,12531,2022-09-19_10h41.26.973,vts_reward_expectancy_OFFLINE,2022.2.4,59.92560787097398,
0,0,0,1,0,1,0,0,star ,circle,1,0,1,0,2,2,26,10,,,,,,,,,,,,,,,,,,,,,,,,,,,,,,,,,,,,,,,,268.41554672500024,268.41554672500024,268.41554672500024,268.41554672500024,268.41554672500024,268.41554672500024,268.41554672500024,268.41554672500024,268.41554672500024,268.41554672500024,a,0.32406200700006593,1,333,1,268.7660999620002,270.26784431900023,,,,,,,,,,,,,,,,,,,,,,,,,,,,,,,,,,,,,,,,,,,,,,,,,,,,,,,,,,,,,,,,,,,,,12531,2022-09-19_10h41.26.973,vts_reward_expectancy_OFFLINE,2022.2.4,59.92560787097398,
1,0,0,0,0,0,1,0,triangle,hexagon,1,0,1,0,2,3,27,1,,,,,,,,,,,,,,,,,,,,,,,,,,,,,,,,,,,,,,,,270.76849016200003,270.76849016200003,270.76849016200003,270.76849016200003,270.76849016200003,270.76849016200003,270.76849016200003,270.76849016200003,270.76849016200003,270.76849016200003,l,0.25122341700034667,10,343,1,271.0519382450002,272.55364257600013,272.55364257600013,,,,,,,,,,,,,,,,,,,,,,,,,,,,,,,,,,,,,,,,,,,,,,,,,,,,,,,,,,,,,,,,,,,,12531,2022-09-19_10h41.26.973,vts_reward_expectancy_OFFLINE,2022.2.4,59.92560787097398,
0,0,0,1,0,0,1,0,star,hexagon,1,0,1,0,2,4,28,11,,,,,,,,,,,,,,,,,,,,,,,,,,,,,,,,,,,,,,,,273.0540983269998,273.0540983269998,273.0540983269998,273.0540983269998,273.0540983269998,273.0540983269998,273.0540983269998,273.0540983269998,273.0540983269998,273.0540983269998,a,0.35742054400043344,10,353,1,273.43783477099987,274.939520294,,,,,,,,,,,,,,,,,,,,,,,,,,,,,,,,,,,,,,,,,,,,,,,,,,,,,,,,,,,,,,,,,,,,,12531,2022-09-19_10h41.26.973,vts_reward_expectancy_OFFLINE,2022.2.4,59.92560787097398,
0,1,0,0,1,0,0,0,circle,triangle,1,0,1,0,2,5,29,3,,,,,,,,,,,,,,,,,,,,,,,,,,,,,,,,,,,,,,,,275.4402447809998,275.4402447809998,275.4402447809998,275.4402447809998,275.4402447809998,275.4402447809998,275.4402447809998,275.4402447809998,275.4402447809998,275.4402447809998,a,0.36208955000029164,10,363,1,275.8240084889999,277.3256151549999,,,,,,,,,,,,,,,,,,,,,,,,,,,,,,,,,,,,,,,,,,,,,,,,,,,,,,,,,,,,,,,,,,,,,12531,2022-09-19_10h41.26.973,vts_reward_expectancy_OFFLINE,2022.2.4,59.92560787097398,
0,0,0,1,1,0,0,0,star,triangle,1,0,1,0,2,6,30,9,,,,,,,,,,,,,,,,,,,,,,,,,,,,,,,,,,,,,,,,277.8262278369998,277.8262278369998,277.8262278369998,277.8262278369998,277.8262278369998,277.8262278369998,277.8262278369998,277.8262278369998,277.8262278369998,277.8262278369998,l,0.37611685499996383,1,364,1,278.22654626199983,279.7282498989998,,,,,,,,,,,,,,,,,,,,,,,,,,,,,,,,,,,,,,,,,,,,,,,,,,,,,,,,,,,,,,,,,,,,,12531,2022-09-19_10h41.26.973,vts_reward_expectancy_OFFLINE,2022.2.4,59.92560787097398,
1,0,0,0,0,0,0,1,triangle,star,1,0,1,0,2,7,31,2,,,,,,,,,,,,,,,,,,,,,,,,,,,,,,,,,,,,,,,,280.22866362700006,280.22866362700006,280.22866362700006,280.22866362700006,280.22866362700006,280.22866362700006,280.22866362700006,280.22866362700006,280.22866362700006,280.22866362700006,a,0.3506677930004116,10,374,1,280.59584838,282.0975483709999,,,,,,,,,,,,,,,,,,,,,,,,,,,,,,,,,,,,,,,,,,,,,,,,,,,,,,,,,,,,,,,,,,,,,12531,2022-09-19_10h41.26.973,vts_reward_expectancy_OFFLINE,2022.2.4,59.92560787097398,
1,0,0,0,0,1,0,0,triangle,circle,1,0,1,0,2,8,32,0,,,,,,,,,,,,,,,,,,,,,,,,,,,,,,,,,,,,,,,,282.5979495309998,282.5979495309998,282.5979495309998,282.5979495309998,282.5979495309998,282.5979495309998,282.5979495309998,282.5979495309998,282.5979495309998,282.5979495309998,l,0.34929913399992074,1,375,1,282.96504311399985,284.4666884500002,,,,,,,,,,,,,,,,,,,,,,,,,,,,,,,,,,,,,,,,,,,,,,,,,,,,,,,,,,,,,,,,,,,,,12531,2022-09-19_10h41.26.973,vts_reward_expectancy_OFFLINE,2022.2.4,59.92560787097398,
0,1,0,0,0,0,0,1,circle,star,1,0,1,0,2,9,33,5,,,,,,,,,,,,,,,,,,,,,,,,,,,,,,,,,,,,,,,,284.96726041500006,284.96726041500006,284.96726041500006,284.96726041500006,284.96726041500006,284.96726041500006,284.96726041500006,284.96726041500006,284.96726041500006,284.96726041500006,a,0.37895828500040807,1,376,1,285.3678720769999,286.86932544399997,,,,,,,,,,,,,,,,,,,,,,,,,,,,,,,,,,,,,,,,,,,,,,,,,,,,,,,,,,,,,,,,,,,,,12531,2022-09-19_10h41.26.973,vts_reward_expectancy_OFFLINE,2022.2.4,59.92560787097398,
0,1,0,0,0,0,1,0,circle,hexagon,1,0,1,0,2,10,34,4,,,,,,,,,,,,,,,,,,,,,,,,,,,,,,,,,,,,,,,,287.3698434990001,287.3698434990001,287.3698434990001,287.3698434990001,287.3698434990001,287.3698434990001,287.3698434990001,287.3698434990001,287.3698434990001,287.3698434990001,l,0.4489542330002223,10,386,1,287.8372404410002,289.3387694439998,,,,,,,,,,,,,,,,,,,,,,,,,,,,,,,,,,,,,,,,,,,,,,,,,,,,,,,,,,,,,,,,,,,,,12531,2022-09-19_10h41.26.973,vts_reward_expectancy_OFFLINE,2022.2.4,59.92560787097398,
0,0,1,0,0,0,0,1,hexagon,star,1,0,1,0,2,11,35,8,,,,,,,,,,,,,,,,,,,,,,,,,,,,,,,,,,,,,,,,289.8394241340002,289.8394241340002,289.8394241340002,289.8394241340002,289.8394241340002,289.8394241340002,289.8394241340002,289.8394241340002,289.8394241340002,289.8394241340002,l,0.5953624580001815,1,387,1,290.45688416099983,291.9585070620001,,,,,,,,,,,,,,,,,,,,,,,,,,,,,,,,,,,,,,,,,,,,,,,,,,,,,,,,,,,,,,,,,,,,,12531,2022-09-19_10h41.26.973,vts_reward_expectancy_OFFLINE,2022.2.4,59.92560787097398,
0,1,0,0,1,0,0,0,circle,triangle,2,0,2,0,0,0,0,3,,,,,,,,,,,,,,,,,,,,,,,,,,,,,,,,,,,,,,,,360.1333426010001,360.1333426010001,360.1333426010001,360.1333426010001,360.1333426010001,360.1333426010001,360.1333426010001,360.1333426010001,360.1333426010001,360.1333426010001,a,1.252493837000202,1,388,2,361.41811051900004,362.9197437309999,,,,,,,,,,,,,,,,,,,,,,,,,,,,,,,,,,,,,,,,,,,,,,,,,,,,,,,,,,,,,,,,,,,,,12531,2022-09-19_10h41.26.973,vts_reward_expectancy_OFFLINE,2022.2.4,59.92560787097398,
0,1,0,0,0,0,1,0,circle,hexagon,2,0,2,0,0,1,1,4,,,,,,,,,,,,,,,,,,,,,,,,,,,,,,,,,,,,,,,,363.4203463069998,363.4203463069998,363.4203463069998,363.4203463069998,363.4203463069998,363.4203463069998,363.4203463069998,363.4203463069998,363.4203463069998,363.4203463069998,l,0.5517161120001219,10,398,2,364.00454151099984,365.50620098399986,,,,,,,,,,,,,,,,,,,,,,,,,,,,,,,,,,,,,,,,,,,,,,,,,,,,,,,,,,,,,,,,,,,,,12531,2022-09-19_10h41.26.973,vts_reward_expectancy_OFFLINE,2022.2.4,59.92560787097398,
0,0,1,0,0,1,0,0,hexagon,circle,2,0,2,0,0,2,2,7,,,,,,,,,,,,,,,,,,,,,,,,,,,,,,,,,,,,,,,,366.00656323600015,366.00656323600015,366.00656323600015,366.00656323600015,366.00656323600015,366.00656323600015,366.00656323600015,366.00656323600015,366.00656323600015,366.00656323600015,a,0.5411129870003606,10,408,2,366.5740459489998,368.0757621309999,,,,,,,,,,,,,,,,,,,,,,,,,,,,,,,,,,,,,,,,,,,,,,,,,,,,,,,,,,,,,,,,,,,,,12531,2022-09-19_10h41.26.973,vts_reward_expectancy_OFFLINE,2022.2.4,59.92560787097398,
1,0,0,0,0,0,1,0,triangle,hexagon,2,0,2,0,0,3,3,1,,,,,,,,,,,,,,,,,,,,,,,,,,,,,,,,,,,,,,,,368.576168951,368.576168951,368.576168951,368.576168951,368.576168951,368.576168951,368.576168951,368.576168951,368.576168951,368.576168951,l,2.436149535000368,10,418,2,371.02878210100016,372.53062580000005,372.53062580000005,,,,,,,,,,,,,,,,,,,,,,,,,,,,,,,,,,,,,,,,,,,,,,,,,,,,,,,,,,,,,,,,,,,,12531,2022-09-19_10h41.26.973,vts_reward_expectancy_OFFLINE,2022.2.4,59.92560787097398,
0,0,1,0,1,0,0,0,hexagon,triangle,2,0,2,0,0,4,4,6,,,,,,,,,,,,,,,,,,,,,,,,,,,,,,,,,,,,,,,,373.0310506310002,373.0310506310002,373.0310506310002,373.0310506310002,373.0310506310002,373.0310506310002,373.0310506310002,373.0310506310002,373.0310506310002,373.0310506310002,a,0.8432764569997744,10,428,2,373.8987891910001,375.40030717699983,,,,,,,,,,,,,,,,,,,,,,,,,,,,,,,,,,,,,,,,,,,,,,,,,,,,,,,,,,,,,,,,,,,,,12531,2022-09-19_10h41.26.973,vts_reward_expectancy_OFFLINE,2022.2.4,59.92560787097398,
0,0,1,0,0,0,0,1,hexagon,star,2,0,2,0,0,5,5,8,,,,,,,,,,,,,,,,,,,,,,,,,,,,,,,,,,,,,,,,375.9009499499998,375.9009499499998,375.9009499499998,375.9009499499998,375.9009499499998,375.9009499499998,375.9009499499998,375.9009499499998,375.9009499499998,375.9009499499998,l,0.5979644350004492,10,438,2,376.5184560849998,378.01974567100024,,,,,,,,,,,,,,,,,,,,,,,,,,,,,,,,,,,,,,,,,,,,,,,,,,,,,,,,,,,,,,,,,,,,,12531,2022-09-19_10h41.26.973,vts_reward_expectancy_OFFLINE,2022.2.4,59.92560787097398,
1,0,0,0,0,1,0,0,triangle,circle,2,0,2,0,0,6,6,0,,,,,,,,,,,,,,,,,,,,,,,,,,,,,,,,,,,,,,,,378.52050916100006,378.52050916100006,378.52050916100006,378.52050916100006,378.52050916100006,378.52050916100006,378.52050916100006,378.52050916100006,378.52050916100006,378.52050916100006,l,0.39418368399992687,10,448,2,378.93757493400017,380.43911854,380.43911854,,,,,,,,,,,,,,,,,,,,,,,,,,,,,,,,,,,,,,,,,,,,,,,,,,,,,,,,,,,,,,,,,,,,12531,2022-09-19_10h41.26.973,vts_reward_expectancy_OFFLINE,2022.2.4,59.92560787097398,
0,1,0,0,0,0,0,1,circle,star,2,0,2,0,0,7,7,5,,,,,,,,,,,,,,,,,,,,,,,,,,,,,,,,,,,,,,,,380.9399113569998,380.9399113569998,380.9399113569998,380.9399113569998,380.9399113569998,380.9399113569998,380.9399113569998,380.9399113569998,380.9399113569998,380.9399113569998,l,0.35164954399988346,10,458,2,381.32339347000016,382.82509152500006,,,,,,,,,,,,,,,,,,,,,,,,,,,,,,,,,,,,,,,,,,,,,,,,,,,,,,,,,,,,,,,,,,,,,12531,2022-09-19_10h41.26.973,vts_reward_expectancy_OFFLINE,2022.2.4,59.92560787097398,
0,0,0,1,0,1,0,0,star ,circle,2,0,2,0,0,8,8,10,,,,,,,,,,,,,,,,,,,,,,,,,,,,,,,,,,,,,,,,383.3257082360001,383.3257082360001,383.3257082360001,383.3257082360001,383.3257082360001,383.3257082360001,383.3257082360001,383.3257082360001,383.3257082360001,383.3257082360001,l,0.32516401300017606,1,459,2,383.6760688590002,385.17791710500023,,,,,,,,,,,,,,,,,,,,,,,,,,,,,,,,,,,,,,,,,,,,,,,,,,,,,,,,,,,,,,,,,,,,,12531,2022-09-19_10h41.26.973,vts_reward_expectancy_OFFLINE,2022.2.4,59.92560787097398,
0,0,0,1,0,0,1,0,star,hexagon,2,0,2,0,0,9,9,11,,,,,,,,,,,,,,,,,,,,,,,,,,,,,,,,,,,,,,,,385.6785088360002,385.6785088360002,385.6785088360002,385.6785088360002,385.6785088360002,385.6785088360002,385.6785088360002,385.6785088360002,385.6785088360002,385.6785088360002,l,0.34881019700014804,10,469,2,386.0457270769998,387.54705458399985,,,,,,,,,,,,,,,,,,,,,,,,,,,,,,,,,,,,,,,,,,,,,,,,,,,,,,,,,,,,,,,,,,,,,12531,2022-09-19_10h41.26.973,vts_reward_expectancy_OFFLINE,2022.2.4,59.92560787097398,
1,0,0,0,0,0,0,1,triangle,star,2,0,2,0,0,10,10,2,,,,,,,,,,,,,,,,,,,,,,,,,,,,,,,,,,,,,,,,388.0477973420002,388.0477973420002,388.0477973420002,388.0477973420002,388.0477973420002,388.0477973420002,388.0477973420002,388.0477973420002,388.0477973420002,388.0477973420002,l,0.3392200819998834,1,470,2,388.415360984,389.91634741999997,,,,,,,,,,,,,,,,,,,,,,,,,,,,,,,,,,,,,,,,,,,,,,,,,,,,,,,,,,,,,,,,,,,,,12531,2022-09-19_10h41.26.973,vts_reward_expectancy_OFFLINE,2022.2.4,59.92560787097398,
0,0,0,1,1,0,0,0,star,triangle,2,0,2,0,0,11,11,9,,,,,,,,,,,,,,,,,,,,,,,,,,,,,,,,,,,,,,,,390.41688435000015,390.41688435000015,390.41688435000015,390.41688435000015,390.41688435000015,390.41688435000015,390.41688435000015,390.41688435000015,390.41688435000015,390.41688435000015,l,0.33690410500003054,1,471,2,390.78419556400013,392.2857052459999,392.2857052459999,,,,,,,,,,,,,,,,,,,,,,,,,,,,,,,,,,,,,,,,,,,,,,,,,,,,,,,,,,,,,,,,,,,,12531,2022-09-19_10h41.26.973,vts_reward_expectancy_OFFLINE,2022.2.4,59.92560787097398,
0,1,0,0,1,0,0,0,circle,triangle,2,0,2,0,1,0,12,3,,,,,,,,,,,,,,,,,,,,,,,,,,,,,,,,,,,,,,,,392.7862587740001,392.7862587740001,392.7862587740001,392.7862587740001,392.7862587740001,392.7862587740001,392.7862587740001,392.7862587740001,392.7862587740001,392.7862587740001,a,0.29536160399993605,1,472,2,393.10338638099984,394.6048144450001,,,,,,,,,,,,,,,,,,,,,,,,,,,,,,,,,,,,,,,,,,,,,,,,,,,,,,,,,,,,,,,,,,,,,12531,2022-09-19_10h41.26.973,vts_reward_expectancy_OFFLINE,2022.2.4,59.92560787097398,
0,0,1,0,0,0,0,1,hexagon,star,2,0,2,0,1,1,13,8,,,,,,,,,,,,,,,,,,,,,,,,,,,,,,,,,,,,,,,,395.10535199700007,395.10535199700007,395.10535199700007,395.10535199700007,395.10535199700007,395.10535199700007,395.10535199700007,395.10535199700007,395.10535199700007,395.10535199700007,l,0.529273903000103,1,473,2,395.6561873659998,397.15773116599985,,,,,,,,,,,,,,,,,,,,,,,,,,,,,,,,,,,,,,,,,,,,,,,,,,,,,,,,,,,,,,,,,,,,,12531,2022-09-19_10h41.26.973,vts_reward_expectancy_OFFLINE,2022.2.4,59.92560787097398,
0,1,0,0,0,0,0,1,circle,star,2,0,2,0,1,2,14,5,,,,,,,,,,,,,,,,,,,,,,,,,,,,,,,,,,,,,,,,397.65817355599984,397.65817355599984,397.65817355599984,397.65817355599984,397.65817355599984,397.65817355599984,397.65817355599984,397.65817355599984,397.65817355599984,397.65817355599984,a,0.5364736510000512,1,474,2,398.22559341099986,399.727324941,,,,,,,,,,,,,,,,,,,,,,,,,,,,,,,,,,,,,,,,,,,,,,,,,,,,,,,,,,,,,,,,,,,,,12531,2022-09-19_10h41.26.973,vts_reward_expectancy_OFFLINE,2022.2.4,59.92560787097398,
0,0,1,0,0,1,0,0,hexagon,circle,2,0,2,0,1,3,15,7,,,,,,,,,,,,,,,,,,,,,,,,,,,,,,,,,,,,,,,,400.22799528999985,400.22799528999985,400.22799528999985,400.22799528999985,400.22799528999985,400.22799528999985,400.22799528999985,400.22799528999985,400.22799528999985,400.22799528999985,a,0.11767702399993141,10,484,2,400.37807344600014,401.8795701869999,401.8795701869999,,,,,,,,,,,,,,,,,,,,,,,,,,,,,,,,,,,,,,,,,,,,,,,,,,,,,,,,,,,,,,,,,,,,12531,2022-09-19_10h41.26.973,vts_reward_expectancy_OFFLINE,2022.2.4,59.92560787097398,
0,0,0,1,1,0,0,0,star,triangle,2,0,2,0,1,4,16,9,,,,,,,,,,,,,,,,,,,,,,,,,,,,,,,,,,,,,,,,402.3801566090001,402.3801566090001,402.3801566090001,402.3801566090001,402.3801566090001,402.3801566090001,402.3801566090001,402.3801566090001,402.3801566090001,402.3801566090001,a,0.2535654439998325,10,494,2,402.66398180900023,404.165337295,,,,,,,,,,,,,,,,,,,,,,,,,,,,,,,,,,,,,,,,,,,,,,,,,,,,,,,,,,,,,,,,,,,,,12531,2022-09-19_10h41.26.973,vts_reward_expectancy_OFFLINE,2022.2.4,59.92560787097398,
0,0,0,1,0,1,0,0,star ,circle,2,0,2,0,1,5,17,10,,,,,,,,,,,,,,,,,,,,,,,,,,,,,,,,,,,,,,,,404.6658948439999,404.6658948439999,404.6658948439999,404.6658948439999,404.6658948439999,404.6658948439999,404.6658948439999,404.6658948439999,404.6658948439999,404.6658948439999,a,0.04098950600018725,10,504,2,404.73289232900015,406.23423646499987,,,,,,,,,,,,,,,,,,,,,,,,,,,,,,,,,,,,,,,,,,,,,,,,,,,,,,,,,,,,,,,,,,,,,12531,2022-09-19_10h41.26.973,vts_reward_expectancy_OFFLINE,2022.2.4,59.92560787097398,
0,0,0,1,0,0,1,0,star,hexagon,2,0,2,0,1,6,18,11,,,,,,,,,,,,,,,,,,,,,,,,,,,,,,,,,,,,,,,,406.7348277169999,406.7348277169999,406.7348277169999,406.7348277169999,406.7348277169999,406.7348277169999,406.7348277169999,406.7348277169999,406.7348277169999,406.7348277169999,l,0.011489423000057286,10,514,2,406.76826210399986,408.27002527900004,,,,,,,,,,,,,,,,,,,,,,,,,,,,,,,,,,,,,,,,,,,,,,,,,,,,,,,,,,,,,,,,,,,,,12531,2022-09-19_10h41.26.973,vts_reward_expectancy_OFFLINE,2022.2.4,59.92560787097398,
0,0,1,0,1,0,0,0,hexagon,triangle,2,0,2,0,1,7,19,6,,,,,,,,,,,,,,,,,,,,,,,,,,,,,,,,,,,,,,,,408.7703685299998,408.7703685299998,408.7703685299998,408.7703685299998,408.7703685299998,408.7703685299998,408.7703685299998,408.7703685299998,408.7703685299998,408.7703685299998,a,0.033479937000265636,10,524,2,408.8204983169999,410.3223927459999,410.3223927459999,,,,,,,,,,,,,,,,,,,,,,,,,,,,,,,,,,,,,,,,,,,,,,,,,,,,,,,,,,,,,,,,,,,,12531,2022-09-19_10h41.26.973,vts_reward_expectancy_OFFLINE,2022.2.4,59.92560787097398,
0,1,0,0,0,0,1,0,circle,hexagon,2,0,2,0,1,8,20,4,,,,,,,,,,,,,,,,,,,,,,,,,,,,,,,,,,,,,,,,410.8227756269998,410.8227756269998,410.8227756269998,410.8227756269998,410.8227756269998,410.8227756269998,410.8227756269998,410.8227756269998,410.8227756269998,410.8227756269998,a,0.14894198100000722,1,525,2,410.98964779100015,412.49119979499983,,,,,,,,,,,,,,,,,,,,,,,,,,,,,,,,,,,,,,,,,,,,,,,,,,,,,,,,,,,,,,,,,,,,,12531,2022-09-19_10h41.26.973,vts_reward_expectancy_OFFLINE,2022.2.4,59.92560787097398,
1,0,0,0,0,1,0,0,triangle,circle,2,0,2,0,1,9,21,0,,,,,,,,,,,,,,,,,,,,,,,,,,,,,,,,,,,,,,,,412.9917611400001,412.9917611400001,412.9917611400001,412.9917611400001,412.9917611400001,412.9917611400001,412.9917611400001,412.9917611400001,412.9917611400001,412.9917611400001,a,0.22644367200018678,10,535,2,413.242112892,414.74371905199996,,,,,,,,,,,,,,,,,,,,,,,,,,,,,,,,,,,,,,,,,,,,,,,,,,,,,,,,,,,,,,,,,,,,,12531,2022-09-19_10h41.26.973,vts_reward_expectancy_OFFLINE,2022.2.4,59.92560787097398,
1,0,0,0,0,0,0,1,triangle,star,2,0,2,0,1,10,22,2,,,,,,,,,,,,,,,,,,,,,,,,,,,,,,,,,,,,,,,,415.24422509099986,415.24422509099986,415.24422509099986,415.24422509099986,415.24422509099986,415.24422509099986,415.24422509099986,415.24422509099986,415.24422509099986,415.24422509099986,l,0.014957128000332887,10,545,2,415.2776514289999,416.779372769,,,,,,,,,,,,,,,,,,,,,,,,,,,,,,,,,,,,,,,,,,,,,,,,,,,,,,,,,,,,,,,,,,,,,12531,2022-09-19_10h41.26.973,vts_reward_expectancy_OFFLINE,2022.2.4,59.92560787097398,
1,0,0,0,0,0,1,0,triangle,hexagon,2,0,2,0,1,11,23,1,,,,,,,,,,,,,,,,,,,,,,,,,,,,,,,,,,,,,,,,417.27970581599993,417.27970581599993,417.27970581599993,417.27970581599993,417.27970581599993,417.27970581599993,417.27970581599993,417.27970581599993,417.27970581599993,417.27970581599993,a,0.5074891090002893,1,546,2,417.8137991560002,419.31561262000014,,,,,,,,,,,,,,,,,,,,,,,,,,,,,,,,,,,,,,,,,,,,,,,,,,,,,,,,,,,,,,,,,,,,,12531,2022-09-19_10h41.26.973,vts_reward_expectancy_OFFLINE,2022.2.4,59.92560787097398,
0,0,1,0,0,0,0,1,hexagon,star,2,0,2,0,2,0,24,8,,,,,,,,,,,,,,,,,,,,,,,,,,,,,,,,,,,,,,,,419.81584268200004,419.81584268200004,419.81584268200004,419.81584268200004,419.81584268200004,419.81584268200004,419.81584268200004,419.81584268200004,419.81584268200004,419.81584268200004,l,0.49944193500004985,1,547,2,420.3331003210001,421.8346965659998,,,,,,,,,,,,,,,,,,,,,,,,,,,,,,,,,,,,,,,,,,,,,,,,,,,,,,,,,,,,,,,,,,,,,12531,2022-09-19_10h41.26.973,vts_reward_expectancy_OFFLINE,2022.2.4,59.92560787097398,
0,0,0,1,0,0,1,0,star,hexagon,2,0,2,0,2,1,25,11,,,,,,,,,,,,,,,,,,,,,,,,,,,,,,,,,,,,,,,,422.33553143100016,422.33553143100016,422.33553143100016,422.33553143100016,422.33553143100016,422.33553143100016,422.33553143100016,422.33553143100016,422.33553143100016,422.33553143100016,l,0.1551395000001321,10,557,2,422.5190127290002,424.020637265,,,,,,,,,,,,,,,,,,,,,,,,,,,,,,,,,,,,,,,,,,,,,,,,,,,,,,,,,,,,,,,,,,,,,12531,2022-09-19_10h41.26.973,vts_reward_expectancy_OFFLINE,2022.2.4,59.92560787097398,
1,0,0,0,0,1,0,0,triangle,circle,2,0,2,0,2,2,26,0,,,,,,,,,,,,,,,,,,,,,,,,,,,,,,,,,,,,,,,,424.5214301000001,424.5214301000001,424.5214301000001,424.5214301000001,424.5214301000001,424.5214301000001,424.5214301000001,424.5214301000001,424.5214301000001,424.5214301000001,l,0.18457244799992623,10,567,2,424.7382254250001,426.239987596,426.239987596,,,,,,,,,,,,,,,,,,,,,,,,,,,,,,,,,,,,,,,,,,,,,,,,,,,,,,,,,,,,,,,,,,,,12531,2022-09-19_10h41.26.973,vts_reward_expectancy_OFFLINE,2022.2.4,59.92560787097398,
0,1,0,0,1,0,0,0,circle,triangle,2,0,2,0,2,3,27,3,,,,,,,,,,,,,,,,,,,,,,,,,,,,,,,,,,,,,,,,426.74028370199994,426.74028370199994,426.74028370199994,426.74028370199994,426.74028370199994,426.74028370199994,426.74028370199994,426.74028370199994,426.74028370199994,426.74028370199994,a,0.23728491000019858,1,568,2,427.00725062599986,428.5090029869998,,,,,,,,,,,,,,,,,,,,,,,,,,,,,,,,,,,,,,,,,,,,,,,,,,,,,,,,,,,,,,,,,,,,,12531,2022-09-19_10h41.26.973,vts_reward_expectancy_OFFLINE,2022.2.4,59.92560787097398,
0,1,0,0,0,0,1,0,circle,hexagon,2,0,2,0,2,4,28,4,,,,,,,,,,,,,,,,,,,,,,,,,,,,,,,,,,,,,,,,429.00947340699986,429.00947340699986,429.00947340699986,429.00947340699986,429.00947340699986,429.00947340699986,429.00947340699986,429.00947340699986,429.00947340699986,429.00947340699986,l,0.14415870199991332,10,578,2,429.1762377760001,430.6781164170002,,,,,,,,,,,,,,,,,,,,,,,,,,,,,,,,,,,,,,,,,,,,,,,,,,,,,,,,,,,,,,,,,,,,,12531,2022-09-19_10h41.26.973,vts_reward_expectancy_OFFLINE,2022.2.4,59.92560787097398,
0,0,0,1,1,0,0,0,star,triangle,2,0,2,0,2,5,29,9,,,,,,,,,,,,,,,,,,,,,,,,,,,,,,,,,,,,,,,,431.1785614649998,431.1785614649998,431.1785614649998,431.1785614649998,431.1785614649998,431.1785614649998,431.1785614649998,431.1785614649998,431.1785614649998,431.1785614649998,l,1.0797679239999525,1,579,2,432.27971345000014,433.78153919900024,,,,,,,,,,,,,,,,,,,,,,,,,,,,,,,,,,,,,,,,,,,,,,,,,,,,,,,,,,,,,,,,,,,,,12531,2022-09-19_10h41.26.973,vts_reward_expectancy_OFFLINE,2022.2.4,59.92560787097398,
1,0,0,0,0,0,0,1,triangle,star,2,0,2,0,2,6,30,2,,,,,,,,,,,,,,,,,,,,,,,,,,,,,,,,,,,,,,,,434.282191065,434.282191065,434.282191065,434.282191065,434.282191065,434.282191065,434.282191065,434.282191065,434.282191065,434.282191065,l,0.6492079209997428,10,589,2,434.9492740219998,436.4510444809998,,,,,,,,,,,,,,,,,,,,,,,,,,,,,,,,,,,,,,,,,,,,,,,,,,,,,,,,,,,,,,,,,,,,,12531,2022-09-19_10h41.26.973,vts_reward_expectancy_OFFLINE,2022.2.4,59.92560787097398,
0,0,1,0,1,0,0,0,hexagon,triangle,2,0,2,0,2,7,31,6,,,,,,,,,,,,,,,,,,,,,,,,,,,,,,,,,,,,,,,,436.95160014500016,436.95160014500016,436.95160014500016,436.95160014500016,436.95160014500016,436.95160014500016,436.95160014500016,436.95160014500016,436.95160014500016,436.95160014500016,a,0.5074864970001727,10,599,2,437.48547994699993,438.9874033209999,,,,,,,,,,,,,,,,,,,,,,,,,,,,,,,,,,,,,,,,,,,,,,,,,,,,,,,,,,,,,,,,,,,,,12531,2022-09-19_10h41.26.973,vts_reward_expectancy_OFFLINE,2022.2.4,59.92560787097398,
0,0,0,1,0,1,0,0,star ,circle,2,0,2,0,2,8,32,10,,,,,,,,,,,,,,,,,,,,,,,,,,,,,,,,,,,,,,,,439.4878393939998,439.4878393939998,439.4878393939998,439.4878393939998,439.4878393939998,439.4878393939998,439.4878393939998,439.4878393939998,439.4878393939998,439.4878393939998,l,0.4098891049998201,1,600,2,439.9213129939999,441.423349141,,,,,,,,,,,,,,,,,,,,,,,,,,,,,,,,,,,,,,,,,,,,,,,,,,,,,,,,,,,,,,,,,,,,,12531,2022-09-19_10h41.26.973,vts_reward_expectancy_OFFLINE,2022.2.4,59.92560787097398,
1,0,0,0,0,0,1,0,triangle,hexagon,2,0,2,0,2,9,33,1,,,,,,,,,,,,,,,,,,,,,,,,,,,,,,,,,,,,,,,,441.92379465500017,441.92379465500017,441.92379465500017,441.92379465500017,441.92379465500017,441.92379465500017,441.92379465500017,441.92379465500017,441.92379465500017,441.92379465500017,a,0.6785858060002283,1,601,2,442.6244957019999,444.1261384459999,,,,,,,,,,,,,,,,,,,,,,,,,,,,,,,,,,,,,,,,,,,,,,,,,,,,,,,,,,,,,,,,,,,,,12531,2022-09-19_10h41.26.973,vts_reward_expectancy_OFFLINE,2022.2.4,59.92560787097398,
0,1,0,0,0,0,0,1,circle,star,2,0,2,0,2,10,34,5,,,,,,,,,,,,,,,,,,,,,,,,,,,,,,,,,,,,,,,,444.62671073699994,444.62671073699994,444.62671073699994,444.62671073699994,444.62671073699994,444.62671073699994,444.62671073699994,444.62671073699994,444.62671073699994,444.62671073699994,l,0.34378580200018405,1,602,2,444.99396400700016,446.495660776,,,,,,,,,,,,,,,,,,,,,,,,,,,,,,,,,,,,,,,,,,,,,,,,,,,,,,,,,,,,,,,,,,,,,12531,2022-09-19_10h41.26.973,vts_reward_expectancy_OFFLINE,2022.2.4,59.92560787097398,
0,0,1,0,0,1,0,0,hexagon,circle,2,0,2,0,2,11,35,7,,,,,,,,,,,,,,,,,,,,,,,,,,,,,,,,,,,,,,,,446.9959651670001,446.9959651670001,446.9959651670001,446.9959651670001,446.9959651670001,446.9959651670001,446.9959651670001,446.9959651670001,446.9959651670001,446.9959651670001,a,0.31810442500000136,10,612,2,447.3466543740001,448.84800725700006,,,,,,,,,,,,,,,,,,,,,,,,,,,,,,,,,,,,,,,,,,,,,,,,,,,,,,,,,,,,,,,,,,,,,12531,2022-09-19_10h41.26.973,vts_reward_expectancy_OFFLINE,2022.2.4,59.92560787097398,
,,,,,,,,,,,,,,,,,,0,0,0,0,0,0,0,0,,,,,,,,,,,,,,,,,,,,,,,,,,,,,,,,,,,,,,,,,,,,,,,,509.01445020599976,,,B,181,triangle,0.002142645999811066,504.4429516839996,505.9443448950001,505.9443448950001,505.9443448950001,1,0,d,1.5374684359999264,0,507.5128784760004,,,,,,,,,,,,,,,,,,,,,,,,,,,,,,,,,,,,,,,,,,,,,,,,,,,,,12531,2022-09-19_10h41.26.973,vts_reward_expectancy_OFFLINE,2022.2.4,59.92560787097398,
,,,,,,,,,,,,,,,,,,0,0,0,0,1,0,1,0,,,,,,,,,,,,,,,,,,,,,,,,,,,,,,,,,,,,,,,,,,,,,,,,513.8030880769998,,,Y,139,circle,0.0011238320003030822,509.999522351,511.5005270209999,511.5005270209999,511.5005270209999,1,0,f,0.7739094620005744,0,512.3013557509998,,,,,,,,,,,,,,,,,,,,,,,,,,,,,,,,,,,,,,,,,,,,,,,,,,,,,12531,2022-09-19_10h41.26.973,vts_reward_expectancy_OFFLINE,2022.2.4,59.92560787097398,
,,,,,,,,,,,,,,,,,,0,0,0,0,2,0,2,0,,,,,,,,,,,,,,,,,,,,,,,,,,,,,,,,,,,,,,,,,,,,,,,,518.6751918759996,,,D,167,hexagon,0.0010815160003403435,514.787263275,516.2890253170003,516.2890253170003,516.2890253170003,1,0,d,0.8572652130001188,0,517.1735421469998,,,,,,,,,,,,,,,,,,,,,,,,,,,,,,,,,,,,,,,,,,,,,,,,,,,,,12531,2022-09-19_10h41.26.973,vts_reward_expectancy_OFFLINE,2022.2.4,59.92560787097398,
,,,,,,,,,,,,,,,,,,0,0,0,0,3,0,3,0,,,,,,,,,,,,,,,,,,,,,,,,,,,,,,,,,,,,,,,,,,,,,,,,523.3637313000004,,,H,160,star,0.0016108820000226842,519.6596262059998,521.1613213550004,521.1613213550004,521.1613213550004,1,0,d,0.6817958370006636,0,521.8621344400003,,,,,,,,,,,,,,,,,,,,,,,,,,,,,,,,,,,,,,,,,,,,,,,,,,,,,12531,2022-09-19_10h41.26.973,vts_reward_expectancy_OFFLINE,2022.2.4,59.92560787097398,
,,,,,,,,,,,,,,,,,,0,0,0,0,4,0,4,0,,,,,,,,,,,,,,,,,,,,,,,,,,,,,,,,,,,,,,,,,,,,,,,,527.7849097570002,,,S,146,triangle,0.0012276119996386115,524.3479073809999,525.8497649019996,525.8497649019996,525.8497649019996,1,0,f,0.40097545900016485,0,526.283627024,,,,,,,,,,,,,,,,,,,,,,,,,,,,,,,,,,,,,,,,,,,,,,,,,,,,,12531,2022-09-19_10h41.26.973,vts_reward_expectancy_OFFLINE,2022.2.4,59.92560787097398,
,,,,,,,,,,,,,,,,,,0,0,0,0,5,0,5,0,,,,,,,,,,,,,,,,,,,,,,,,,,,,,,,,,,,,,,,,,,,,,,,,532.2902246039998,,,W,125,circle,0.0015003270000306657,528.7699626970002,530.2712550239999,530.2712550239999,530.2712550239999,1,0,f,0.49117504899959386,0,530.788379952,,,,,,,,,,,,,,,,,,,,,,,,,,,,,,,,,,,,,,,,,,,,,,,,,,,,,12531,2022-09-19_10h41.26.973,vts_reward_expectancy_OFFLINE,2022.2.4,59.92560787097398,
,,,,,,,,,,,,,,,,,,0,0,0,0,6,0,6,0,,,,,,,,,,,,,,,,,,,,,,,,,,,,,,,,,,,,,,,,,,,,,,,,536.8284918289996,,,U,132,hexagon,0.0014372769992405665,533.2746141900002,534.7763078519997,534.7763078519997,534.7763078519997,1,0,f,0.5295140399998672,0,535.326714542,,,,,,,,,,,,,,,,,,,,,,,,,,,,,,,,,,,,,,,,,,,,,,,,,,,,,12531,2022-09-19_10h41.26.973,vts_reward_expectancy_OFFLINE,2022.2.4,59.92560787097398,
,,,,,,,,,,,,,,,,,,0,0,0,0,7,0,7,0,,,,,,,,,,,,,,,,,,,,,,,,,,,,,,,,,,,,,,,,,,,,,,,,541.5671590770003,,,F,174,star,0.0013709929999095039,537.81290124,539.3145376320003,539.3145376320003,539.3145376320003,1,0,d,0.7278634960007366,0,540.0653441469999,,,,,,,,,,,,,,,,,,,,,,,,,,,,,,,,,,,,,,,,,,,,,,,,,,,,,12531,2022-09-19_10h41.26.973,vts_reward_expectancy_OFFLINE,2022.2.4,59.92560787097398,
,,,,,,,,,,,,,,,,,,0,0,0,0,8,0,8,0,,,,,,,,,,,,,,,,,,,,,,,,,,,,,,,,,,,,,,,,,,,,,,,,546.0885799060002,,,B,181,triangle,0.0011547379999683471,542.5514651890003,544.052983002,544.052983002,544.052983002,1,0,d,0.5016469699999107,0,544.5869162060003,,,,,,,,,,,,,,,,,,,,,,,,,,,,,,,,,,,,,,,,,,,,,,,,,,,,,12531,2022-09-19_10h41.26.973,vts_reward_expectancy_OFFLINE,2022.2.4,59.92560787097398,
,,,,,,,,,,,,,,,,,,0,0,0,0,9,0,9,0,,,,,,,,,,,,,,,,,,,,,,,,,,,,,,,,,,,,,,,,,,,,,,,,550.8103822950002,,,Y,139,circle,0.001189109000733879,547.0730359969998,548.5747023119998,548.5747023119998,548.5747023119998,1,0,f,0.7014715210002578,0,549.3090278559998,,,,,,,,,,,,,,,,,,,,,,,,,,,,,,,,,,,,,,,,,,,,,,,,,,,,,12531,2022-09-19_10h41.26.973,vts_reward_expectancy_OFFLINE,2022.2.4,59.92560787097398,
,,,,,,,,,,,,,,,,,,,,,,,,,,0,0,0,0,0,0,0,0,,,,,,,,,,,,,,,,,,,,,,,,,,,,,,,,,,,,,,,,571.4500211720001,,571.9504572789997,H,125,star,0.0020929659995090333,,,,,1,0,,,1,569.9482404120004,567.7960035210003,569.2975517099999,569.2975517099999,569.2975517099999,j,0.6344251719997374,571.4500211720001,,,,,,,,,,,,,,,,,,,,,,,,,,,,,,,,,,,,,,,,,,,,,,12531,2022-09-19_10h41.26.973,vts_reward_expectancy_OFFLINE,2022.2.4,59.92560787097398,
,,,,,,,,,,,,,,,,,,,,,,,,,,0,0,0,0,1,0,1,0,,,,,,,,,,,,,,,,,,,,,,,,,,,,,,,,,,,,,,,,576.0382695359999,,,B,146,hexagon,0.0008832499997879495,,,,,1,0,,,1,574.5366778310004,572.4344707619998,573.9359538390004,573.9359538390004,573.9359538390004,j,0.5704528230003234,,,,,,,,,,,,,,,,,,,,,,,,,,,,,,,,,,,,,,,,,,,,,,,12531,2022-09-19_10h41.26.973,vts_reward_expectancy_OFFLINE,2022.2.4,59.92560787097398,
,,,,,,,,,,,,,,,,,,,,,,,,,,0,0,0,0,2,0,2,0,,,,,,,,,,,,,,,,,,,,,,,,,,,,,,,,,,,,,,,,580.5599593689999,,,D,160,circle,0.0012637789996006177,,,,,1,0,,,1,579.0584845999997,577.0228109220002,578.5244725670004,578.5244725670004,578.5244725670004,k,0.5098157920006088,,,,,,,,,,,,,,,,,,,,,,,,,,,,,,,,,,,,,,,,,,,,,,,12531,2022-09-19_10h41.26.973,vts_reward_expectancy_OFFLINE,2022.2.4,59.92560787097398,
,,,,,,,,,,,,,,,,,,,,,,,,,,0,0,0,0,3,0,3,0,,,,,,,,,,,,,,,,,,,,,,,,,,,,,,,,,,,,,,,,585.1149251089996,,,W,181,triangle,0.0010455780002303072,,,,,1,0,,,1,583.6135268519997,581.5443569040003,583.0462721159997,583.0462721159997,583.0462721159997,k,0.5487794480000048,,,,,,,,,,,,,,,,,,,,,,,,,,,,,,,,,,,,,,,,,,,,,,,12531,2022-09-19_10h41.26.973,vts_reward_expectancy_OFFLINE,2022.2.4,59.92560787097398,
,,,,,,,,,,,,,,,,,,,,,,,,,,0,0,0,0,4,0,4,0,,,,,,,,,,,,,,,,,,,,,,,,,,,,,,,,,,,,,,,,589.670190931,,,U,132,triangle,0.0012846540003010887,,,,,1,0,,,1,588.168523541,586.0993494569998,587.6010501639998,587.6010501639998,587.6010501639998,j,0.5447331949994805,,,,,,,,,,,,,,,,,,,,,,,,,,,,,,,,,,,,,,,,,,,,,,,12531,2022-09-19_10h41.26.973,vts_reward_expectancy_OFFLINE,2022.2.4,59.92560787097398,
,,,,,,,,,,,,,,,,,,,,,,,,,,0,0,0,0,5,0,5,0,,,,,,,,,,,,,,,,,,,,,,,,,,,,,,,,,,,,,,,,594.3920803899996,,,Y,167,circle,0.0012326619998930255,,,,,1,0,,,1,592.8900654800004,590.6550244069999,592.1561805160004,592.1561805160004,592.1561805160004,k,0.7018374160002168,,,,,,,,,,,,,,,,,,,,,,,,,,,,,,,,,,,,,,,,,,,,,,,12531,2022-09-19_10h41.26.973,vts_reward_expectancy_OFFLINE,2022.2.4,59.92560787097398,
,,,,,,,,,,,,,,,,,,,,,,,,,,0,0,0,0,6,0,6,0,,,,,,,,,,,,,,,,,,,,,,,,,,,,,,,,,,,,,,,,598.9969715290003,,,S,139,hexagon,0.0013653249998242245,,,,,1,0,,,1,597.4953926410003,595.3764459219997,596.878232904,596.878232904,596.878232904,j,0.5888373949997003,,,,,,,,,,,,,,,,,,,,,,,,,,,,,,,,,,,,,,,,,,,,,,,12531,2022-09-19_10h41.26.973,vts_reward_expectancy_OFFLINE,2022.2.4,59.92560787097398,
,,,,,,,,,,,,,,,,,,,,,,,,,,0,0,0,0,7,0,7,0,,,,,,,,,,,,,,,,,,,,,,,,,,,,,,,,,,,,,,,,603.6189050400003,,,F,174,star,0.0013048160008111154,,,,,1,0,,,1,602.1170455910001,599.9813884609998,601.4831652409998,601.4831652409998,601.4831652409998,k,0.6172211070002049,603.6189050400003,,,,,,,,,,,,,,,,,,,,,,,,,,,,,,,,,,,,,,,,,,,,,,12531,2022-09-19_10h41.26.973,vts_reward_expectancy_OFFLINE,2022.2.4,59.92560787097398,
,,,,,,,,,,,,,,,,,,,,,,,,,,0,0,0,0,8,0,8,0,,,,,,,,,,,,,,,,,,,,,,,,,,,,,,,,,,,,,,,,608.5073932890004,,,H,125,hexagon,0.0006837569999333937,,,,,1,0,,,1,607.0058770290002,604.6030806220001,606.1046834619997,606.1046834619997,606.1046834619997,j,0.8827266800003599,,,,,,,,,,,,,,,,,,,,,,,,,,,,,,,,,,,,,,,,,,,,,,,12531,2022-09-19_10h41.26.973,vts_reward_expectancy_OFFLINE,2022.2.4,59.92560787097398,
,,,,,,,,,,,,,,,,,,,,,,,,,,0,0,0,0,9,0,9,0,,,,,,,,,,,,,,,,,,,,,,,,,,,,,,,,,,,,,,,,613.146121411,,,B,146,circle,0.0013449230000333046,,,,,1,0,,,1,611.6445922910002,609.4919276859996,610.9936131460004,610.9936131460004,610.9936131460004,j,0.6183793029999833,,,,,,,,,,,,,,,,,,,,,,,,,,,,,,,,,,,,,,,,,,,,,,,12531,2022-09-19_10h41.26.973,vts_reward_expectancy_OFFLINE,2022.2.4,59.92560787097398,
,,,,,,,,,,,,,,,,,,,,,,,,,,,,,,,,,,0,0,0,0,0,0,0,0,,,,,,,,,,,,,,,,,,,,,,,,,,,,0,612,,,641.3103456900003,,,H,125,star,0.0017511910000393982,,,,,1,0,,,2,,,,,,,,,636.7720528499999,636.7720528499999,636.7720528499999,636.7720528499999,638.2569411440004,638.2569411440004,638.2569411440004,638.2569411440004,638.2739517120003,638.2739517120003,638.2739517120003,638.2739517120003,-1,letter,NA,d,1.5213750959997014,vtsPrac,639.8086356010003,,,,,,,,,,,,,,,,,,,,,,,,,,,12531,2022-09-19_10h41.26.973,vts_reward_expectancy_OFFLINE,2022.2.4,59.92560787097398,
,,,,,,,,,,,,,,,,,,,,,,,,,,,,,,,,,,0,0,0,0,1,0,1,0,,,,,,,,,,,,,,,,,,,,,,,,,,,,0,612,,,646.7330139390001,,,S,167,triangle,0.0012142069999754312,,,,,0,0,,,2,,,,,,,,,642.2959733069997,642.2959733069997,642.2959733069997,642.2959733069997,643.7966204290001,643.7966204290001,643.7966204290001,643.7966204290001,643.7966204290001,643.7966204290001,643.7966204290001,643.7966204290001,switch,number,NA,j,1.4140155180007241,vtsPrac,645.2326601609998,,,,,,,,,,,,,,,,,,,,,,,,,,,12531,2022-09-19_10h41.26.973,vts_reward_expectancy_OFFLINE,2022.2.4,59.92560787097398,
,,,,,,,,,,,,,,,,,,,,,,,,,,,,,,,,,,0,0,0,0,2,0,2,0,,,,,,,,,,,,,,,,,,,,,,,,,,,,0,612,,,651.1712651510002,,,B,139,triangle,0.0014201779995346442,,,,,0,1,,,2,,,,,,,,,647.7185341139998,647.7185341139998,647.7185341139998,647.7185341139998,649.2191629249996,649.2191629249996,649.2191629249996,649.2191629249996,649.2191629249996,649.2191629249996,649.2191629249996,649.2191629249996,switch,letter,NA,f,0.43184292399973856,vtsPrac,649.669657762,,,,,,,,,,,,,,,,,,,,,,,,,,,12531,2022-09-19_10h41.26.973,vts_reward_expectancy_OFFLINE,2022.2.4,59.92560787097398,
,,,,,,,,,,,,,,,,,,,,,,,,,,,,,,,,,,0,0,0,0,3,0,3,0,,,,,,,,,,,,,,,,,,,,,,,,,,,,0,612,,,657.1613970189997,,,F,146,circle,0.0010041549994639354,,,,,1,1,,,2,,,,,,,,,652.1554557490003,652.1554557490003,652.1554557490003,652.1554557490003,653.6572731370002,653.6572731370002,653.6572731370002,653.6572731370002,653.6572731370002,653.6572731370002,653.6572731370002,653.6572731370002,repeat,letter,lettRpt,d,1.9696186609994584,vtsPrac,655.6596932369998,,,,,,,,,,,,,,,,,,,,,,,,,,,12531,2022-09-19_10h41.26.973,vts_reward_expectancy_OFFLINE,2022.2.4,59.92560787097398,
,,,,,,,,,,,,,,,,,,,,,,,,,,,,,,,,,,0,0,0,0,4,0,4,0,,,,,,,,,,,,,,,,,,,,,,,,,,,,0,612,,,662.9174685969997,,,H,125,circle,0.0012011790004180511,,,,,1,0,,,2,,,,,,,,,658.1456499170004,658.1456499170004,658.1456499170004,658.1456499170004,659.6471730870003,659.6471730870003,659.6471730870003,659.6471730870003,659.6471730870003,659.6471730870003,659.6471730870003,659.6471730870003,switch,number,numSwt,j,1.7385677300003408,vtsPrac,661.4159089890004,,,,,,,,,,,,,,,,,,,,,,,,,,,12531,2022-09-19_10h41.26.973,vts_reward_expectancy_OFFLINE,2022.2.4,59.92560787097398,
,,,,,,,,,,,,,,,,,,,,,,,,,,,,,,,,,,0,0,0,0,5,0,5,0,,,,,,,,,,,,,,,,,,,,,,,,,,,,0,612,,,668.3903024340002,,,S,167,star,0.0012424599999576458,,,,,1,0,,,2,,,,,,,,,663.9018802699998,663.9018802699998,663.9018802699998,663.9018802699998,665.4037046950002,665.4037046950002,665.4037046950002,665.4037046950002,665.4037046950002,665.4037046950002,665.4037046950002,665.4037046950002,repeat,number,numRpt,k,1.4630052859997704,vtsPrac,666.8884698340003,,,,,,,,,,,,,,,,,,,,,,,,,,,12531,2022-09-19_10h41.26.973,vts_reward_expectancy_OFFLINE,2022.2.4,59.92560787097398,
,,,,,,,,,,,,,,,,,,,,,,,,,,,,,,,,,,0,0,0,0,6,0,6,0,,,,,,,,,,,,,,,,,,,,,,,,,,,,0,612,,,672.9620306510001,,,B,139,circle,0.0011706339992088033,,,,,1,0,,,2,,,,,,,,,669.374583241,669.374583241,669.374583241,669.374583241,670.8764029560002,670.8764029560002,670.8764029560002,670.8764029560002,670.8764029560002,670.8764029560002,670.8764029560002,670.8764029560002,switch,letter,lettSwt,d,0.5670762260001538,vtsPrac,671.4604183140004,672.9620306510001,,,,,,,,,,,,,,,,,,,,,,,,,,12531,2022-09-19_10h41.26.973,vts_reward_expectancy_OFFLINE,2022.2.4,59.92560787097398,
,,,,,,,,,,,,,,,,,,,,,,,,,,,,,,,,,,0,0,0,0,7,0,7,0,,,,,,,,,,,,,,,,,,,,,,,,,,,,0,612,,,677.5838744890002,,,F,146,star,0.0009543109999867738,,,,,1,0,,,2,,,,,,,,,673.9462916349999,673.9462916349999,673.9462916349999,673.9462916349999,675.4480345139996,675.4480345139996,675.4480345139996,675.4480345139996,675.4480345139996,675.4480345139996,675.4480345139996,675.4480345139996,switch,number,numSwt,j,0.6101785850000851,vtsPrac,676.0821997460002,,,,,,,,,,,,,,,,,,,,,,,,,,,12531,2022-09-19_10h41.26.973,vts_reward_expectancy_OFFLINE,2022.2.4,59.92560787097398,
,,,,,,,,,,,,,,,,,,,,,,,,,,,,,,,,,,0,0,0,0,8,0,8,0,,,,,,,,,,,,,,,,,,,,,,,,,,,,0,612,,,682.205497982,,,Y,167,hexagon,0.001129045000197948,,,,,1,0,,,2,,,,,,,,,678.5682325100001,678.5682325100001,678.5682325100001,678.5682325100001,680.0698908039999,680.0698908039999,680.0698908039999,680.0698908039999,680.0698908039999,680.0698908039999,680.0698908039999,680.0698908039999,switch,letter,lettSwt,f,0.6118612349996511,vtsPrac,680.7038139540005,,,,,,,,,,,,,,,,,,,,,,,,,,,12531,2022-09-19_10h41.26.973,vts_reward_expectancy_OFFLINE,2022.2.4,59.92560787097398,
,,,,,,,,,,,,,,,,,,,,,,,,,,,,,,,,,,0,0,0,0,9,0,9,0,,,,,,,,,,,,,,,,,,,,,,,,,,,,0,612,,,687.1108862850001,,,W,174,circle,0.0012421800001902739,,,,,1,0,,,2,,,,,,,,,683.1899514769998,683.1899514769998,683.1899514769998,683.1899514769998,684.6914923669997,684.6914923669997,684.6914923669997,684.6914923669997,684.6914923669997,684.6914923669997,684.6914923669997,684.6914923669997,switch,number,numSwt,k,0.886592472000757,vtsPrac,685.6094141790004,,,,,,,,,,,,,,,,,,,,,,,,,,,12531,2022-09-19_10h41.26.973,vts_reward_expectancy_OFFLINE,2022.2.4,59.92560787097398,
,,,,,,,,,,,,,,,,,,,,,,,,,,,,,,,,,,0,0,0,0,10,0,10,0,,,,,,,,,,,,,,,,,,,,,,,,,,,,0,612,,,692.1165595719999,,,D,132,circle,0.0012608800007001264,,,,,1,0,,,2,,,,,,,,,688.0953497900005,688.0953497900005,688.0953497900005,688.0953497900005,689.5971815549997,689.5971815549997,689.5971815549997,689.5971815549997,689.5971815549997,689.5971815549997,689.5971815549997,689.5971815549997,switch,letter,lettSwt,d,0.9972101999996994,vtsPrac,690.6147638269999,,,,,,,,,,,,,,,,,,,,,,,,,,,12531,2022-09-19_10h41.26.973,vts_reward_expectancy_OFFLINE,2022.2.4,59.92560787097398,
,,,,,,,,,,,,,,,,,,,,,,,,,,,,,,,,,,0,0,0,0,11,0,11,0,,,,,,,,,,,,,,,,,,,,,,,,,,,,0,612,,,697.1218243150001,,,F,139,star,0.0010916280007222667,,,,,1,0,,,2,,,,,,,,,693.1008747410001,693.1008747410001,693.1008747410001,693.1008747410001,694.6025730340002,694.6025730340002,694.6025730340002,694.6025730340002,694.6025730340002,694.6025730340002,694.6025730340002,694.6025730340002,repeat,letter,lettRpt,d,0.9851034480002454,vtsPrac,695.6203532289996,,,,,,,,,,,,,,,,,,,,,,,,,,,12531,2022-09-19_10h41.26.973,vts_reward_expectancy_OFFLINE,2022.2.4,59.92560787097398,
,,,,,,,,,,,,,,,,,,,,,,,,,,,,,,,,,,0,0,0,0,12,0,12,0,,,,,,,,,,,,,,,,,,,,,,,,,,,,0,612,,,701.6435558999997,,,W,167,triangle,0.0013079009995635715,,,,,0,0,,,2,,,,,,,,,698.1062888609999,698.1062888609999,698.1062888609999,698.1062888609999,699.6081531389996,699.6081531389996,699.6081531389996,699.6081531389996,699.6081531389996,699.6081531389996,699.6081531389996,699.6081531389996,switch,number,NA,j,0.5157567040000686,vtsPrac,700.1424793339997,,,,,,,,,,,,,,,,,,,,,,,,,,,12531,2022-09-19_10h41.26.973,vts_reward_expectancy_OFFLINE,2022.2.4,59.92560787097398,
,,,,,,,,,,,,,,,,,,,,,,,,,,,,,,,,,,0,0,0,0,13,0,13,0,,,,,,,,,,,,,,,,,,,,,,,,,,,,0,612,,,706.415632701,,,S,181,star,0.0013781870002276264,,,,,1,1,,,2,,,,,,,,,702.627969824,702.627969824,702.627969824,702.627969824,704.1297498059998,704.1297498059998,704.1297498059998,704.1297498059998,704.1297498059998,704.1297498059998,704.1297498059998,704.1297498059998,repeat,number,numRpt,k,0.76104504299974,vtsPrac,704.9142289850001,,,,,,,,,,,,,,,,,,,,,,,,,,,12531,2022-09-19_10h41.26.973,vts_reward_expectancy_OFFLINE,2022.2.4,59.92560787097398,
,,,,,,,,,,,,,,,,,,,,,,,,,,,,,,,,,,0,0,0,0,14,0,14,0,,,,,,,,,,,,,,,,,,,,,,,,,,,,0,612,,,710.9371014849999,,,F,174,triangle,0.0014140410003165016,,,,,0,0,,,2,,,,,,,,,707.4000968300002,707.4000968300002,707.4000968300002,707.4000968300002,708.9016318569998,708.9016318569998,708.9016318569998,708.9016318569998,708.9016318569998,708.9016318569998,708.9016318569998,708.9016318569998,switch,letter,NA,f,0.5015586579997944,vtsPrac,709.4356005710001,,,,,,,,,,,,,,,,,,,,,,,,,,,12531,2022-09-19_10h41.26.973,vts_reward_expectancy_OFFLINE,2022.2.4,59.92560787097398,
,,,,,,,,,,,,,,,,,,,,,,,,,,,,,,,,,,0,0,0,0,15,0,15,0,,,,,,,,,,,,,,,,,,,,,,,,,,,,0,612,,,715.4421288139997,,,U,160,circle,0.0011763329994209926,,,,,1,1,,,2,,,,,,,,,711.9213314559997,711.9213314559997,711.9213314559997,711.9213314559997,713.423289672,713.423289672,713.423289672,713.423289672,713.423289672,713.423289672,713.423289672,713.423289672,repeat,letter,lettRpt,f,0.49025019100054124,vtsPrac,713.9412853219997,,,,,,,,,,,,,,,,,,,,,,,,,,,12531,2022-09-19_10h41.26.973,vts_reward_expectancy_OFFLINE,2022.2.4,59.92560787097398,
,,,,,,,,,,,,,,,,,,,,,,,,,,,,,,,,,,1,0,1,0,0,0,0,0,,,,,,,,,,,,,,,,,,,,,,,,,,,,0,612,,,727.88933933,,,S,160,circle,0.002024254000389192,,,,,1,0,,,3,,,,,,,,,723.5844398739996,723.5844398739996,723.5844398739996,723.5844398739996,725.0861338210002,725.0861338210002,725.0861338210002,725.0861338210002,725.0861338210002,725.0861338210002,725.0861338210002,725.0861338210002,repeat,letter,lettRpt,f,1.2762234349997925,vtsPrac,726.3877874920004,,,,,,,,,,,,,,,,,,,,,,,,,,,12531,2022-09-19_10h41.26.973,vts_reward_expectancy_OFFLINE,2022.2.4,59.92560787097398,
,,,,,,,,,,,,,,,,,,,,,,,,,,,,,,,,,,1,0,1,0,1,0,1,0,,,,,,,,,,,,,,,,,,,,,,,,,,,,0,612,,,733.8957953920003,,,F,167,triangle,0.0011797639999713283,,,,,1,0,,,3,,,,,,,,,728.8737524769999,728.8737524769999,728.8737524769999,728.8737524769999,730.3751812389996,730.3751812389996,730.3751812389996,730.3751812389996,730.3751812389996,730.3751812389996,730.3751812389996,730.3751812389996,switch,number,numSwt,k,1.9948235260003457,vtsPrac,732.3942602149996,,,,,,,,,,,,,,,,,,,,,,,,,,,12531,2022-09-19_10h41.26.973,vts_reward_expectancy_OFFLINE,2022.2.4,59.92560787097398,
,,,,,,,,,,,,,,,,,,,,,,,,,,,,,,,,,,1,0,1,0,2,0,2,0,,,,,,,,,,,,,,,,,,,,,,,,,,,,0,612,,,739.6187753939998,,,U,174,hexagon,0.0014481700000033015,,,,,1,0,,,3,,,,,,,,,734.8803962859997,734.8803962859997,734.8803962859997,734.8803962859997,736.3819497700001,736.3819497700001,736.3819497700001,736.3819497700001,736.3819497700001,736.3819497700001,736.3819497700001,736.3819497700001,repeat,number,numRpt,k,1.7177312529997835,vtsPrac,738.1173010409998,,,,,,,,,,,,,,,,,,,,,,,,,,,12531,2022-09-19_10h41.26.973,vts_reward_expectancy_OFFLINE,2022.2.4,59.92560787097398,
,,,,,,,,,,,,,,,,,,,,,,,,,,,,,,,,,,1,0,1,0,3,0,3,0,,,,,,,,,,,,,,,,,,,,,,,,,,,,0,612,,,744.5409421640002,,,D,125,star,0.0010089329998663743,,,,,1,0,,,3,,,,,,,,,740.6036532510002,740.6036532510002,740.6036532510002,740.6036532510002,742.1048977610003,742.1048977610003,742.1048977610003,742.1048977610003,742.1048977610003,742.1048977610003,742.1048977610003,742.1048977610003,repeat,number,numRpt,j,0.9061216820005029,vtsPrac,743.0393661089997,,,,,,,,,,,,,,,,,,,,,,,,,,,12531,2022-09-19_10h41.26.973,vts_reward_expectancy_OFFLINE,2022.2.4,59.92560787097398,
,,,,,,,,,,,,,,,,,,,,,,,,,,,,,,,,,,1,0,1,0,4,0,4,0,,,,,,,,,,,,,,,,,,,,,,,,,,,,0,612,,,749.2463905110003,,,S,160,triangle,0.0012198919994261814,,,,,1,0,,,3,,,,,,,,,745.5254161790003,745.5254161790003,745.5254161790003,745.5254161790003,747.0271677590003,747.0271677590003,747.0271677590003,747.0271677590003,747.0271677590003,747.0271677590003,747.0271677590003,747.0271677590003,switch,letter,lettSwt,f,0.695131486000264,vtsPrac,747.7446830200001,,,,,,,,,,,,,,,,,,,,,,,,,,,12531,2022-09-19_10h41.26.973,vts_reward_expectancy_OFFLINE,2022.2.4,59.92560787097398,
,,,,,,,,,,,,,,,,,,,,,,,,,,,,,,,,,,1,0,1,0,5,0,5,0,,,,,,,,,,,,,,,,,,,,,,,,,,,,0,612,,,754.8187802300004,,,F,167,hexagon,0.0013870559996576048,,,,,1,0,,,3,,,,,,,,,750.2308949370004,750.2308949370004,750.2308949370004,750.2308949370004,751.7322196440005,751.7322196440005,751.7322196440005,751.7322196440005,751.7322196440005,751.7322196440005,751.7322196440005,751.7322196440005,repeat,letter,lettRpt,d,1.566560329999902,vtsPrac,753.3175001390005,,,,,,,,,,,,,,,,,,,,,,,,,,,12531,2022-09-19_10h41.26.973,vts_reward_expectancy_OFFLINE,2022.2.4,59.92560787097398,
,,,,,,,,,,,,,,,,,,,,,,,,,,,,,,,,,,1,0,1,0,6,0,6,0,,,,,,,,,,,,,,,,,,,,,,,,,,,,0,612,,,760.2414821650004,,,U,174,star,0.00090911299957952,,,,,1,0,,,3,,,,,,,,,755.8033140849998,755.8033140849998,755.8033140849998,755.8033140849998,757.3049397919999,757.3049397919999,757.3049397919999,757.3049397919999,757.3049397919999,757.3049397919999,757.3049397919999,757.3049397919999,switch,number,numSwt,k,1.3933295430001635,vtsPrac,758.7400451150002,,,,,,,,,,,,,,,,,,,,,,,,,,,12531,2022-09-19_10h41.26.973,vts_reward_expectancy_OFFLINE,2022.2.4,59.92560787097398,
,,,,,,,,,,,,,,,,,,,,,,,,,,,,,,,,,,1,0,1,0,7,0,7,0,,,,,,,,,,,,,,,,,,,,,,,,,,,,0,612,,,765.0468634960002,,,D,125,hexagon,0.016694183999788947,,,,,1,0,,,3,,,,,,,,,761.2261954820001,761.2261954820001,761.2261954820001,761.2261954820001,762.7108013519996,762.7108013519996,762.7108013519996,762.7108013519996,762.72751991,762.72751991,762.72751991,762.72751991,repeat,number,numRpt,j,0.8035849339999004,vtsPrac,763.5453003799998,,,,,,,,,,,,,,,,,,,,,,,,,,,12531,2022-09-19_10h41.26.973,vts_reward_expectancy_OFFLINE,2022.2.4,59.92560787097398,
,,,,,,,,,,,,,,,,,,,,,,,,,,,,,,,,,,1,0,1,0,8,0,8,0,,,,,,,,,,,,,,,,,,,,,,,,,,,,0,612,,,770.4194730120003,,,F,174,hexagon,0.0013758249997408711,,,,,1,0,,,3,,,,,,,,,766.0314735240004,766.0314735240004,766.0314735240004,766.0314735240004,767.5329163540005,767.5329163540005,767.5329163540005,767.5329163540005,767.5329163540005,767.5329163540005,767.5329163540005,767.5329163540005,switch,letter,lettSwt,d,1.3575732089998382,vtsPrac,768.9178688309999,,,,,,,,,,,,,,,,,,,,,,,,,,,12531,2022-09-19_10h41.26.973,vts_reward_expectancy_OFFLINE,2022.2.4,59.92560787097398,
,,,,,,,,,,,,,,,,,,,,,,,,,,,,,,,,,,1,0,1,0,9,0,9,0,,,,,,,,,,,,,,,,,,,,,,,,,,,,0,612,,,775.2914694309998,,,U,139,triangle,0.0012583719999383902,,,,,0,0,,,3,,,,,,,,,771.4040279650003,771.4040279650003,771.4040279650003,771.4040279650003,772.9056325140004,772.9056325140004,772.9056325140004,772.9056325140004,772.9056325140004,772.9056325140004,772.9056325140004,772.9056325140004,repeat,letter,NA,d,0.8657178999997086,vtsPrac,773.7906836099996,,,,,,,,,,,,,,,,,,,,,,,,,,,12531,2022-09-19_10h41.26.973,vts_reward_expectancy_OFFLINE,2022.2.4,59.92560787097398,
,,,,,,,,,,,,,,,,,,,,,,,,,,,,,,,,,,1,0,1,0,10,0,10,0,,,,,,,,,,,,,,,,,,,,,,,,,,,,0,612,,,780.2637638170004,,,B,167,triangle,0.0010950129999400815,,,,,1,1,,,3,,,,,,,,,776.2760121100005,776.2760121100005,776.2760121100005,776.2760121100005,777.7776752590003,777.7776752590003,777.7776752590003,777.7776752590003,777.7776752590003,777.7776752590003,777.7776752590003,777.7776752590003,repeat,letter,lettRpt,d,0.9607425210001566,vtsPrac,778.763221316,,,,,,,,,,,,,,,,,,,,,,,,,,,12531,2022-09-19_10h41.26.973,vts_reward_expectancy_OFFLINE,2022.2.4,59.92560787097398,
,,,,,,,,,,,,,,,,,,,,,,,,,,,,,,,,,,1,0,1,0,11,0,11,0,,,,,,,,,,,,,,,,,,,,,,,,,,,,0,612,,,784.9522740289999,,,D,132,hexagon,0.001204889999826264,,,,,1,0,,,3,,,,,,,,,781.2480949389997,781.2480949389997,781.2480949389997,781.2480949389997,782.749636561,782.749636561,782.749636561,782.749636561,782.749636561,782.749636561,782.749636561,782.749636561,repeat,letter,lettRpt,d,0.6684921700002633,vtsPrac,783.4504245809999,,,,,,,,,,,,,,,,,,,,,,,,,,,12531,2022-09-19_10h41.26.973,vts_reward_expectancy_OFFLINE,2022.2.4,59.92560787097398,
,,,,,,,,,,,,,,,,,,,,,,,,,,,,,,,,,,1,0,1,0,12,0,12,0,,,,,,,,,,,,,,,,,,,,,,,,,,,,0,612,,,789.8743794349998,,,D,181,circle,0.0011612099997364567,,,,,1,0,,,3,,,,,,,,,785.9364767769998,785.9364767769998,785.9364767769998,785.9364767769998,787.4383746170001,787.4383746170001,787.4383746170001,787.4383746170001,787.4383746170001,787.4383746170001,787.4383746170001,787.4383746170001,switch,number,numSwt,k,0.908577079999759,vtsPrac,788.3725372269996,,,,,,,,,,,,,,,,,,,,,,,,,,,12531,2022-09-19_10h41.26.973,vts_reward_expectancy_OFFLINE,2022.2.4,59.92560787097398,
,,,,,,,,,,,,,,,,,,,,,,,,,,,,,,,,,,1,0,1,0,13,0,13,0,,,,,,,,,,,,,,,,,,,,,,,,,,,,0,612,,,794.796566515,,,H,139,hexagon,0.001448310999876412,,,,,1,0,,,3,,,,,,,,,790.8589096050005,790.8589096050005,790.8589096050005,790.8589096050005,792.360512449,792.360512449,792.360512449,792.360512449,792.360512449,792.360512449,792.360512449,792.360512449,switch,letter,lettSwt,d,0.9073750960001234,vtsPrac,793.2949784469997,,,,,,,,,,,,,,,,,,,,,,,,,,,12531,2022-09-19_10h41.26.973,vts_reward_expectancy_OFFLINE,2022.2.4,59.92560787097398,
,,,,,,,,,,,,,,,,,,,,,,,,,,,,,,,,,,1,0,1,0,14,0,14,0,,,,,,,,,,,,,,,,,,,,,,,,,,,,0,612,,,800.2023068089998,,800.7027686200004,U,160,hexagon,0.0012444409994714078,,,,,1,0,,,3,,,,,,,,,795.780951401,795.780951401,795.780951401,795.780951401,797.2826701159997,797.2826701159997,797.2826701159997,797.2826701159997,797.2826701159997,797.2826701159997,797.2826701159997,797.2826701159997,repeat,letter,lettRpt,f,1.4016955809997853,vtsPrac,798.70066731,800.2023068089998,,,,,,,,,,,,,,,,,,,,,,,,,,12531,2022-09-19_10h41.26.973,vts_reward_expectancy_OFFLINE,2022.2.4,59.92560787097398,
,,,,,,,,,,,,,,,,,,,,,,,,,,,,,,,,,,1,0,1,0,15,0,15,0,,,,,,,,,,,,,,,,,,,,,,,,,,,,0,612,,,804.9577118210004,,,F,167,star,0.0008971049992396729,,,,,1,0,,,3,,,,,,,,,801.1866671290004,801.1866671290004,801.1866671290004,801.1866671290004,802.6882742610001,802.6882742610001,802.6882742610001,802.6882742610001,802.6882742610001,802.6882742610001,802.6882742610001,802.6882742610001,switch,number,numSwt,k,0.7460401960001946,vtsPrac,803.4558126220004,,,,,,,,,,,,,,,,,,,,,,,,,,,12531,2022-09-19_10h41.26.973,vts_reward_expectancy_OFFLINE,2022.2.4,59.92560787097398,
,,,,,,,,,,,,,,,,,,,,,,,,,,,,,,,,,,,,,,,,,,0,0,0,0,,,,,,,,,,,,,,,,,,,,,,,,0,612,,,829.2176213119997,,,S,160,triangle,0.0022143429996503983,,,,,1,0,,,,,,,,,,,,824.2457411359997,824.2457411359997,824.2457411359997,824.2457411359997,825.7471312769999,825.7471312769999,825.7471312769999,825.7471312769999,825.7471312769999,825.7471312769999,825.7471312769999,825.7471312769999,switch,letter,lettSwt,f,1.9432286070000373,noRew,,,0,827.717732435,829.2176213119997,,,,,,,,,,,,,,,,,,,,,,,12531,2022-09-19_10h41.26.973,vts_reward_expectancy_OFFLINE,2022.2.4,59.92560787097398,
,,,,,,,,,,,,,,,,,,,,,,,,,,,,,,,,,,,,,,,,,,1,0,1,0,,,,,,,,,,,,,,,,,,,,,,,,0,612,,,834.4567948389999,,,F,132,circle,0.0008053430001382367,,,,,1,0,,,,,,,,,,,,830.2021337250003,830.2021337250003,830.2021337250003,830.2021337250003,831.70385923,831.70385923,831.70385923,831.70385923,831.70385923,831.70385923,831.70385923,831.70385923,repeat,letter,lettRpt,d,1.2258383849998609,noRew,,,0,832.9553901610002,,,,,,,,,,,,,,,,,,,,,,,,12531,2022-09-19_10h41.26.973,vts_reward_expectancy_OFFLINE,2022.2.4,59.92560787097398,
,,,,,,,,,,,,,,,,,,,,,,,,,,,,,,,,,,,,,,,,,,2,0,2,0,,,,,,,,,,,,,,,,,,,,,,,,0,612,,,839.9630045039999,,,D,167,hexagon,0.001494572999945376,,,,,1,0,,,,,,,,,,,,835.441246721,835.441246721,835.441246721,835.441246721,836.9427862289999,836.9427862289999,836.9427862289999,836.9427862289999,836.9427862289999,836.9427862289999,836.9427862289999,836.9427862289999,repeat,letter,lettRpt,d,1.4913971620003394,noRew,,,0,838.4613450390002,,,,,,,,,,,,,,,,,,,,,,,,12531,2022-09-19_10h41.26.973,vts_reward_expectancy_OFFLINE,2022.2.4,59.92560787097398,
,,,,,,,,,,,,,,,,,,,,,,,,,,,,,,,,,,,,,,,,,,3,0,3,0,,,,,,,,,,,,,,,,,,,,,,,,0,612,,,845.1853044570003,,,H,174,star,0.0013904099996580044,,,,,1,0,,,,,,,,,,,,840.9472481420003,840.9472481420003,840.9472481420003,840.9472481420003,842.4489487590004,842.4489487590004,842.4489487590004,842.4489487590004,842.4489487590004,842.4489487590004,842.4489487590004,842.4489487590004,switch,number,numSwt,k,1.2020820559996537,noRew,,,0,843.6835966800004,845.1853044570003,,,,,,,,,,,,,,,,,,,,,,,12531,2022-09-19_10h41.26.973,vts_reward_expectancy_OFFLINE,2022.2.4,59.92560787097398,
,,,,,,,,,,,,,,,,,,,,,,,,,,,,,,,,,,,,,,,,,,4,0,4,0,,,,,,,,,,,,,,,,,,,,,,,,0,612,,,850.1741640240002,,,S,160,hexagon,0.0011628949996520532,,,,,1,0,,,,,,,,,,,,846.1697681110004,846.1697681110004,846.1697681110004,846.1697681110004,847.6716390160004,847.6716390160004,847.6716390160004,847.6716390160004,847.6716390160004,847.6716390160004,847.6716390160004,847.6716390160004,repeat,number,numRpt,k,0.9701856669994413,noRew,,,0,848.6725974269998,850.1741640240002,,,,,,,,,,,,,,,,,,,,,,,12531,2022-09-19_10h41.26.973,vts_reward_expectancy_OFFLINE,2022.2.4,59.92560787097398,
,,,,,,,,,,,,,,,,,,,,,,,,,,,,,,,,,,,,,,,,,,5,0,5,0,,,,,,,,,,,,,,,,,,,,,,,,0,612,,,854.7791378999996,,,F,132,circle,0.0009459539996896638,,,,,1,0,,,,,,,,,,,,851.1586079820004,851.1586079820004,851.1586079820004,851.1586079820004,852.6602567650002,852.6602567650002,852.6602567650002,852.6602567650002,852.6602567650002,852.6602567650002,852.6602567650002,852.6602567650002,switch,letter,lettSwt,d,0.5993190249996587,noRew,,,0,853.2775276859998,,,,,,,,,,,,,,,,,,,,,,,,12531,2022-09-19_10h41.26.973,vts_reward_expectancy_OFFLINE,2022.2.4,59.92560787097398,
,,,,,,,,,,,,,,,,,,,,,,,,,,,,,,,,,,,,,,,,,,6,0,6,0,,,,,,,,,,,,,,,,,,,,,,,,0,612,,,860.1851252789997,,860.6857134590005,D,167,triangle,0.0011663750001389417,,,,,1,0,,,,,,,,,,,,855.7635932059998,855.7635932059998,855.7635932059998,855.7635932059998,857.2651492950004,857.2651492950004,857.2651492950004,857.2651492950004,857.2651492950004,857.2651492950004,857.2651492950004,857.2651492950004,switch,number,numSwt,k,1.4020328299998255,noRew,,,0,858.6833385200002,860.1851252789997,,,,,,,,,,,,,,,,,,,,,,,12531,2022-09-19_10h41.26.973,vts_reward_expectancy_OFFLINE,2022.2.4,59.92560787097398,
,,,,,,,,,,,,,,,,,,,,,,,,,,,,,,,,,,,,,,,,,,7,0,7,0,,,,,,,,,,,,,,,,,,,,,,,,0,612,,,865.0572010950004,,,H,174,star,0.0009803319999264204,,,,,1,0,,,,,,,,,,,,861.1694827449996,861.1694827449996,861.1694827449996,861.1694827449996,862.6713924259998,862.6713924259998,862.6713924259998,862.6713924259998,862.6713924259998,862.6713924259998,862.6713924259998,862.6713924259998,repeat,number,numRpt,k,0.858811983000578,noRew,,,0,863.5554630470001,865.0572010950004,,,,,,,,,,,,,,,,,,,,,,,12531,2022-09-19_10h41.26.973,vts_reward_expectancy_OFFLINE,2022.2.4,59.92560787097398,
,,,,,,,,,,,,,,,,,,,,,,,,,,,,,,,,,,,,,,,,,,8,0,8,0,,,,,,,,,,,,,,,,,,,,,,,,0,612,,,869.8961003509999,,,S,174,star,0.001150375999714015,,,,,1,0,,,,,,,,,,,,866.041700145,866.041700145,866.041700145,866.041700145,867.543555789,867.543555789,867.543555789,867.543555789,867.543555789,867.543555789,867.543555789,867.543555789,repeat,number,numRpt,k,0.8266945919999671,noRew,,,0,868.3943557240004,,,,,,,,,,,,,,,,,,,,,,,,12531,2022-09-19_10h41.26.973,vts_reward_expectancy_OFFLINE,2022.2.4,59.92560787097398,
,,,,,,,,,,,,,,,,,,,,,,,,,,,,,,,,,,,,,,,,,,9,0,9,0,,,,,,,,,,,,,,,,,,,,,,,,0,612,,,874.6345538070004,,875.1349961250003,H,146,circle,0.0013129559993103612,,,,,1,0,,,,,,,,,,,,870.8803047550005,870.8803047550005,870.8803047550005,870.8803047550005,872.3822669469996,872.3822669469996,872.3822669469996,872.3822669469996,872.3822669469996,872.3822669469996,872.3822669469996,872.3822669469996,switch,letter,lettSwt,d,0.7340159999998832,noRew,,,0,873.132776766,874.6345538070004,,,,,,,,,,,,,,,,,,,,,,,12531,2022-09-19_10h41.26.973,vts_reward_expectancy_OFFLINE,2022.2.4,59.92560787097398,
,,,,,,,,,,,,,,,,,,,,,,,,,,,,,,,,,,,,,,,,,,10,0,10,0,,,,,,,,,,,,,,,,,,,,,,,,0,612,,,879.2561929990002,,,F,125,circle,0.0010359079997215304,,,,,1,0,,,,,,,,,,,,875.618833645,875.618833645,875.618833645,875.618833645,877.1203595889997,877.1203595889997,877.1203595889997,877.1203595889997,877.1203595889997,877.1203595889997,877.1203595889997,877.1203595889997,repeat,letter,lettRpt,d,0.6099856369996814,noRew,,,0,877.7545068490003,,,,,,,,,,,,,,,,,,,,,,,,12531,2022-09-19_10h41.26.973,vts_reward_expectancy_OFFLINE,2022.2.4,59.92560787097398,
,,,,,,,,,,,,,,,,,,,,,,,,,,,,,,,,,,,,,,,,,,11,0,11,0,,,,,,,,,,,,,,,,,,,,,,,,0,612,,,884.028321921,,,B,139,hexagon,0.0013843950000591576,,,,,1,0,,,,,,,,,,,,880.2406446769996,880.2406446769996,880.2406446769996,880.2406446769996,881.742191285,881.742191285,881.742191285,881.742191285,881.742191285,881.742191285,881.742191285,881.742191285,switch,number,numSwt,j,0.7568579680005314,noRew,,,0,882.5265809509997,,,,,,,,,,,,,,,,,,,,,,,,12531,2022-09-19_10h41.26.973,vts_reward_expectancy_OFFLINE,2022.2.4,59.92560787097398,
,,,,,,,,,,,,,,,,,,,,,,,,,,,,,,,,,,,,,,,,,,12,0,12,0,,,,,,,,,,,,,,,,,,,,,,,,0,612,,,889.4340850720005,,,B,125,triangle,0.0012021940001432085,,,,,1,0,,,,,,,,,,,,885.0126785389998,885.0126785389998,885.0126785389998,885.0126785389998,886.5143214889999,886.5143214889999,886.5143214889999,886.5143214889999,886.5143214889999,886.5143214889999,886.5143214889999,886.5143214889999,repeat,number,numRpt,j,1.392510680000214,noRew,,,0,887.9324324499999,889.4340850720005,,,,,,,,,,,,,,,,,,,,,,,12531,2022-09-19_10h41.26.973,vts_reward_expectancy_OFFLINE,2022.2.4,59.92560787097398,
,,,,,,,,,,,,,,,,,,,,,,,,,,,,,,,,,,,,,,,,,,13,0,13,0,,,,,,,,,,,,,,,,,,,,,,,,0,612,,,895.2069619549998,,,F,139,star,0.0010916450000877376,,,,,1,0,,,,,,,,,,,,890.4188789000004,890.4188789000004,890.4188789000004,890.4188789000004,891.9201527290002,891.9201527290002,891.9201527290002,891.9201527290002,891.9201527290002,891.9201527290002,891.9201527290002,891.9201527290002,switch,letter,lettSwt,d,1.7543425580001895,noRew,,,0,893.7054046569997,,,,,,,,,,,,,,,,,,,,,,,,12531,2022-09-19_10h41.26.973,vts_reward_expectancy_OFFLINE,2022.2.4,59.92560787097398,
,,,,,,,,,,,,,,,,,,,,,,,,,,,,,,,,,,,,,,,,,,14,0,14,0,,,,,,,,,,,,,,,,,,,,,,,,0,612,,,900.3462818109997,,900.8467096959998,H,160,star,0.0011649339994619368,,,,,1,0,,,,,,,,,,,,896.1914891620004,896.1914891620004,896.1914891620004,896.1914891620004,897.6933199749997,897.6933199749997,897.6933199749997,897.6933199749997,897.6933199749997,897.6933199749997,897.6933199749997,897.6933199749997,repeat,letter,lettRpt,d,1.1347089469995808,noRew,,,0,898.8442225160002,900.3462818109997,,,,,,,,,,,,,,,,,,,,,,,12531,2022-09-19_10h41.26.973,vts_reward_expectancy_OFFLINE,2022.2.4,59.92560787097398,
,,,,,,,,,,,,,,,,,,,,,,,,,,,,,,,,,,,,,,,,,,15,0,15,0,,,,,,,,,,,,,,,,,,,,,,,,0,612,,,905.0680233090002,,,S,167,circle,0.0010590080000838498,,,,,0,0,,,,,,,,,,,,901.3307812609996,901.3307812609996,901.3307812609996,901.3307812609996,902.8321863639999,902.8321863639999,902.8321863639999,902.8321863639999,902.8321863639999,902.8321863639999,902.8321863639999,902.8321863639999,switch,number,NA,j,0.7070883680003135,noRew,,,0,903.567772852,905.0680233090002,,,,,,,,,,,,,,,,,,,,,,,12531,2022-09-19_10h41.26.973,vts_reward_expectancy_OFFLINE,2022.2.4,59.92560787097398,
,,,,,,,,,,,,,,,,,,,,,,,,,,,,,,,,,,,,,,,,,,16,0,16,0,,,,,,,,,,,,,,,,,,,,,,,,0,612,,,910.257029891,,,B,139,star,0.0014916580003045965,,,,,1,1,,,,,,,,,,,,906.0523873759998,906.0523873759998,906.0523873759998,906.0523873759998,907.5542461600003,907.5542461600003,907.5542461600003,907.5542461600003,907.5542461600003,907.5542461600003,907.5542461600003,907.5542461600003,repeat,number,numRpt,j,1.168487147000178,noRew,,,0,908.755462267,,,,,,,,,,,,,,,,,,,,,,,,12531,2022-09-19_10h41.26.973,vts_reward_expectancy_OFFLINE,2022.2.4,59.92560787097398,
,,,,,,,,,,,,,,,,,,,,,,,,,,,,,,,,,,,,,,,,,,17,0,17,0,,,,,,,,,,,,,,,,,,,,,,,,0,612,,,917.1479319109999,,,Y,181,circle,0.0013576350002040272,,,,,1,0,,,,,,,,,,,,911.2414519910003,911.2414519910003,911.2414519910003,911.2414519910003,912.7432581059998,912.7432581059998,912.7432581059998,912.7432581059998,912.7432581059998,912.7432581059998,912.7432581059998,912.7432581059998,switch,letter,lettSwt,f,2.8828148900006454,noRew,,,0,915.6463352289998,,,,,,,,,,,,,,,,,,,,,,,,12531,2022-09-19_10h41.26.973,vts_reward_expectancy_OFFLINE,2022.2.4,59.92560787097398,
,,,,,,,,,,,,,,,,,,,,,,,,,,,,,,,,,,,,,,,,,,18,0,18,0,,,,,,,,,,,,,,,,,,,,,,,,0,612,,,921.9700429890004,,,D,125,hexagon,0.001121199999943201,,,,,0,0,,,,,,,,,,,,918.1325145850001,918.1325145850001,918.1325145850001,918.1325145850001,919.634163534,919.634163534,919.634163534,919.634163534,919.634163534,919.634163534,919.634163534,919.634163534,switch,number,NA,k,0.8073532759995032,noRew,,,0,920.4697812569998,,,,,,,,,,,,,,,,,,,,,,,,12531,2022-09-19_10h41.26.973,vts_reward_expectancy_OFFLINE,2022.2.4,59.92560787097398,
,,,,,,,,,,,,,,,,,,,,,,,,,,,,,,,,,,,,,,,,,,19,0,19,0,,,,,,,,,,,,,,,,,,,,,,,,0,612,,,927.793211785,,,S,132,triangle,0.0009440949997951975,,,,,0,1,,,,,,,,,,,,922.9544577949996,922.9544577949996,922.9544577949996,922.9544577949996,924.4561729849997,924.4561729849997,924.4561729849997,924.4561729849997,924.4561729849997,924.4561729849997,924.4561729849997,924.4561729849997,switch,letter,NA,d,1.809487044999969,noRew,,,0,926.291804084,,,,,,,,,,,,,,,,,,,,,,,,12531,2022-09-19_10h41.26.973,vts_reward_expectancy_OFFLINE,2022.2.4,59.92560787097398,
,,,,,,,,,,,,,,,,,,,,,,,,,,,,,,,,,,,,,,,,,,20,0,20,0,,,,,,,,,,,,,,,,,,,,,,,,0,612,,,933.3658319190004,,,D,160,triangle,0.0012614809993465315,,,,,1,1,,,,,,,,,,,,928.7774061559999,928.7774061559999,928.7774061559999,928.7774061559999,930.2791306289996,930.2791306289996,930.2791306289996,930.2791306289996,930.2791306289996,930.2791306289996,930.2791306289996,930.2791306289996,switch,number,numSwt,k,1.5384341430003587,noRew,,,0,931.8643422139999,,,,,,,,,,,,,,,,,,,,,,,,12531,2022-09-19_10h41.26.973,vts_reward_expectancy_OFFLINE,2022.2.4,59.92560787097398,
,,,,,,,,,,,,,,,,,,,,,,,,,,,,,,,,,,,,,,,,,,21,0,21,0,,,,,,,,,,,,,,,,,,,,,,,,0,612,,,938.0879541990003,,,Y,174,hexagon,0.0010853650001081405,,,,,0,0,,,,,,,,,,,,934.3336285359997,934.3336285359997,934.3336285359997,934.3336285359997,935.8351230840003,935.8351230840003,935.8351230840003,935.8351230840003,935.8351230840003,935.8351230840003,935.8351230840003,935.8351230840003,repeat,number,NA,j,0.7185709709997354,noRew,,,0,936.5862064509997,,,,,,,,,,,,,,,,,,,,,,,,12531,2022-09-19_10h41.26.973,vts_reward_expectancy_OFFLINE,2022.2.4,59.92560787097398,
,,,,,,,,,,,,,,,,,,,,,,,,,,,,,,,,,,,,,,,,,,22,0,22,0,,,,,,,,,,,,,,,,,,,,,,,,0,612,,,943.3935527959998,,,F,125,circle,0.0012276229999770294,,,,,1,1,,,,,,,,,,,,939.0720708390004,939.0720708390004,939.0720708390004,939.0720708390004,940.5740503869997,940.5740503869997,940.5740503869997,940.5740503869997,940.5740503869997,940.5740503869997,940.5740503869997,940.5740503869997,repeat,number,numRpt,j,1.2763320060007572,noRew,,,0,941.8919886569997,,,,,,,,,,,,,,,,,,,,,,,,12531,2022-09-19_10h41.26.973,vts_reward_expectancy_OFFLINE,2022.2.4,59.92560787097398,
,,,,,,,,,,,,,,,,,,,,,,,,,,,,,,,,,,,,,,,,,,23,0,23,0,,,,,,,,,,,,,,,,,,,,,,,,0,612,,,948.0654753189997,,,H,139,star,0.01725859300040611,,,,,0,0,,,,,,,,,,,,944.3782117469996,944.3782117469996,944.3782117469996,944.3782117469996,945.8631173039998,945.8631173039998,945.8631173039998,945.8631173039998,945.8798445959997,945.8798445959997,945.8798445959997,945.8798445959997,repeat,number,NA,k,0.6746044119995531,noRew,,,0,946.5805769559997,,,,,,,,,,,,,,,,,,,,,,,,12531,2022-09-19_10h41.26.973,vts_reward_expectancy_OFFLINE,2022.2.4,59.92560787097398,
,,,,,,,,,,,,,,,,,,,,,,,,,,,,,,,,,,,,,,,,,,24,0,24,0,,,,,,,,,,,,,,,,,,,,,,,,0,612,,,954.2889262240001,,,B,174,circle,0.0011795919999713078,,,,,0,1,,,,,,,,,,,,949.0497342289996,949.0497342289996,949.0497342289996,949.0497342289996,950.5515177290004,950.5515177290004,950.5515177290004,950.5515177290004,950.5515177290004,950.5515177290004,950.5515177290004,950.5515177290004,repeat,number,NA,j,2.2108654850003404,noRew,,,0,952.7874246939996,,,,,,,,,,,,,,,,,,,,,,,,12531,2022-09-19_10h41.26.973,vts_reward_expectancy_OFFLINE,2022.2.4,59.92560787097398,
,,,,,,,,,,,,,,,,,,,,,,,,,,,,,,,,,,,,,,,,,,25,0,25,0,,,,,,,,,,,,,,,,,,,,,,,,0,612,,,960.3624363459999,,,H,167,star,0.0014042389993846882,,,,,1,1,,,,,,,,,,,,955.2734433259998,955.2734433259998,955.2734433259998,955.2734433259998,956.7751799270004,956.7751799270004,956.7751799270004,956.7751799270004,956.7751799270004,956.7751799270004,956.7751799270004,956.7751799270004,switch,letter,lettSwt,d,2.0434090979993016,noRew,,,0,958.8609220160001,,,,,,,,,,,,,,,,,,,,,,,,12531,2022-09-19_10h41.26.973,vts_reward_expectancy_OFFLINE,2022.2.4,59.92560787097398,
,,,,,,,,,,,,,,,,,,,,,,,,,,,,,,,,,,,,,,,,,,26,0,26,0,,,,,,,,,,,,,,,,,,,,,,,,0,612,,,966.1520522189999,,,U,146,star,0.001241442000718962,,,,,0,0,,,,,,,,,,,,961.3300473209997,961.3300473209997,961.3300473209997,961.3300473209997,962.8318574210002,962.8318574210002,962.8318574210002,962.8318574210002,962.8318574210002,962.8318574210002,962.8318574210002,962.8318574210002,switch,number,NA,k,1.7862411680002879,noRew,,,0,964.6505235,,,,,,,,,,,,,,,,,,,,,,,,12531,2022-09-19_10h41.26.973,vts_reward_expectancy_OFFLINE,2022.2.4,59.92560787097398,
,,,,,,,,,,,,,,,,,,,,,,,,,,,,,,,,,,,,,,,,,,27,0,27,0,,,,,,,,,,,,,,,,,,,,,,,,0,612,,,971.7582229349996,,,Y,160,hexagon,0.0011843460006275564,,,,,1,1,,,,,,,,,,,,967.1366130620004,967.1366130620004,967.1366130620004,967.1366130620004,968.638177671,968.638177671,968.638177671,968.638177671,968.638177671,968.638177671,968.638177671,968.638177671,repeat,number,numRpt,k,1.595609733999936,noRew,,,0,970.2732639740002,,,,,,,,,,,,,,,,,,,,,,,,12531,2022-09-19_10h41.26.973,vts_reward_expectancy_OFFLINE,2022.2.4,59.92560787097398,
,,,,,,,,,,,,,,,,,,,,,,,,,,,,,,,,,,,,,,,,,,28,0,28,0,,,,,,,,,,,,,,,,,,,,,,,,0,612,,,976.8639326939997,,,S,139,star,0.0015596580005876604,,,,,0,0,,,,,,,,,,,,972.7429411090002,972.7429411090002,972.7429411090002,972.7429411090002,974.2443090860002,974.2443090860002,974.2443090860002,974.2443090860002,974.2443090860002,974.2443090860002,974.2443090860002,974.2443090860002,switch,letter,NA,d,1.0939339820001805,noRew,,,0,975.3639757189999,,,,,,,,,,,,,,,,,,,,,,,,12531,2022-09-19_10h41.26.973,vts_reward_expectancy_OFFLINE,2022.2.4,59.92560787097398,
,,,,,,,,,,,,,,,,,,,,,,,,,,,,,,,,,,,,,,,,,,29,0,29,0,,,,,,,,,,,,,,,,,,,,,,,,0,612,,,982.1362558739997,,,B,160,hexagon,0.0015246920002027764,,,,,0,1,,,,,,,,,,,,977.8484351940001,977.8484351940001,977.8484351940001,977.8484351940001,979.3502181389999,979.3502181389999,979.3502181389999,979.3502181389999,979.3502181389999,979.3502181389999,979.3502181389999,979.3502181389999,switch,number,NA,j,1.2601183989995661,noRew,,,0,980.6347135600004,,,,,,,,,,,,,,,,,,,,,,,,12531,2022-09-19_10h41.26.973,vts_reward_expectancy_OFFLINE,2022.2.4,59.92560787097398,
,,,,,,,,,,,,,,,,,,,,,,,,,,,,,,,,,,,,,,,,,,30,0,30,0,,,,,,,,,,,,,,,,,,,,,,,,0,612,,,987.0583969619997,,,W,146,triangle,0.0012646340001083445,,,,,0,1,,,,,,,,,,,,983.1207516199997,983.1207516199997,983.1207516199997,983.1207516199997,984.6222584740003,984.6222584740003,984.6222584740003,984.6222584740003,984.6222584740003,984.6222584740003,984.6222584740003,984.6222584740003,switch,letter,NA,d,0.901804742000877,noRew,,,0,985.5568007590005,,,,,,,,,,,,,,,,,,,,,,,,12531,2022-09-19_10h41.26.973,vts_reward_expectancy_OFFLINE,2022.2.4,59.92560787097398,
,,,,,,,,,,,,,,,,,,,,,,,,,,,,,,,,,,,,,,,,,,31,0,31,0,,,,,,,,,,,,,,,,,,,,,,,,0,612,,,994.0661329250001,,,U,181,hexagon,0.0015437379997820244,,,,,-1,1,,,,,,,,,,,,988.0429042589999,988.0429042589999,988.0429042589999,988.0429042589999,989.5444986959997,989.5444986959997,989.5444986959997,989.5444986959997,989.5444986959997,989.5444986959997,989.5444986959997,989.5444986959997,switch,no_choice,NA,None,,noRew,,,0,992.5645738190001,,992.5645738190001,992.5645738190001,992.5645738190001,992.5645738190001,,,,,,,,,,,,,,,,,,,12531,2022-09-19_10h41.26.973,vts_reward_expectancy_OFFLINE,2022.2.4,59.92560787097398,
