LTriangleOpac,LCircleOpac,LHexagonOpac,LStarOpac,RTriangleOpac,RCircleOpac,RHexagonOpac,RStarOpac,LShape_ID,RShape_ID,training_blocks.thisRepN,training_blocks.thisTrialN,training_blocks.thisN,training_blocks.thisIndex,training.thisRepN,training.thisTrialN,training.thisN,training.thisIndex,task1_prac_redo.thisRepN,task1_prac_redo.thisTrialN,task1_prac_redo.thisN,task1_prac_redo.thisIndex,task1_prac_trials.thisRepN,task1_prac_trials.thisTrialN,task1_prac_trials.thisN,task1_prac_trials.thisIndex,task2_prac_redo.thisRepN,task2_prac_redo.thisTrialN,task2_prac_redo.thisN,task2_prac_redo.thisIndex,task2_praac_trials.thisRepN,task2_praac_trials.thisTrialN,task2_praac_trials.thisN,task2_praac_trials.thisIndex,vts_prac_redo.thisRepN,vts_prac_redo.thisTrialN,vts_prac_redo.thisN,vts_prac_redo.thisIndex,vts_practice_trials.thisRepN,vts_practice_trials.thisTrialN,vts_practice_trials.thisN,vts_practice_trials.thisIndex,trials_norew.thisRepN,trials_norew.thisTrialN,trials_norew.thisN,trials_norew.thisIndex,block.thisRepN,block.thisTrialN,block.thisN,block.thisIndex,trials_rew.thisRepN,trials_rew.thisTrialN,trials_rew.thisN,trials_rew.thisIndex,key_resp.started,key_resp.keys,key_resp.rt,left_circle.started,right_circle.started,left_triangle.started,right_triangle.started,left_star.started,right_star.started,left_hexagon.started,right_hexagon.started,training_fix.started,training_resp.started,training_resp.keys,training_resp.rt,points_trial,points_cumul,trainBlock,training_feedback_txt.started,fix.started,training_feedback_txt.stopped,fix.stopped,curr_topStim,curr_bottStim,curr_shape,ISI.started,tgt_fix_prac1.started,top_target_prac1.started,bott_target_prac1.started,target_resp_prac1.started,acc,E1,target_resp_prac1.keys,pracBlock,prac_fback_text.started,top_target_prac1.stopped,bott_target_prac1.stopped,target_resp_prac1.stopped,target_resp_prac1.rt,prac_fback_text.stopped,tgt_fix_prac2.started,top_target_prac2.started,bott_target_prac2.started,target_resp_prac2.started,target_resp_prac2.keys,target_resp_prac2.rt,star.started,hegagon.started,triangle.started,circle.started,top_target.started,tgt_fix.started,bot_target.started,target_resp.started,star.stopped,hegagon.stopped,triangle.stopped,circle.stopped,alt,task,condition,target_resp.keys,target_resp.rt,rewCond,vts_fback.started,top_target.stopped,tgt_fix.stopped,bot_target.stopped,target_resp.stopped,vts_fback.stopped,blockNum,norew_fback.started,norew_fback.stopped,key_resp_2.keys,key_resp_2.rt,rewExpect,feedbk_text.started,feedbk_text.stopped,text_3.started,text_3.stopped,button.started,debrief.index,debrief.itemText,debrief.type,debrief.granularity,debrief.font,debrief.markerColor,debrief.response,debrief.rt,button.numClicks,button.timesOn,button.timesOff,participant,date,expName,psychopyVersion,frameRate,
,,,,,,,,,,,,,,,,,,,,,,,,,,,,,,,,,,,,,,,,,,,,,,,,,,,,,,15.997513061000063,space,29.914150285996584,,,,,,,,,,,,,,,,,,,,,,,,,,,,,,,,,,,,,,,,,,,,,,,,,,,,,,,,,,,,,,,,,,,,,,,,,,,,,,,,,,,,,,,,,,27754,2022-09-20_13h57.45.396,vts_reward_expectancy_OFFLINE,2022.2.4,60.217879367892955,
0,1,0,0,0,0,0,1,circle,star,0,0,0,0,0,0,0,5,,,,,,,,,,,,,,,,,,,,,,,,,,,,,,,,,,,,,,,,68.96817954799917,68.96817954799917,68.96817954799917,68.96817954799917,68.96817954799917,68.96817954799917,68.96817954799917,68.96817954799917,68.96817954799917,68.96817954799917,l,1.8479341769998427,1,1,0,70.84181206400172,72.34280690000014,,,,,,,,,,,,,,,,,,,,,,,,,,,,,,,,,,,,,,,,,,,,,,,,,,,,,,,,,,,,,,,,,,,,,,,,,27754,2022-09-20_13h57.45.396,vts_reward_expectancy_OFFLINE,2022.2.4,60.217879367892955,
0,0,0,1,0,1,0,0,star ,circle,0,0,0,0,0,1,1,10,,,,,,,,,,,,,,,,,,,,,,,,,,,,,,,,,,,,,,,,72.84276658200179,72.84276658200179,72.84276658200179,72.84276658200179,72.84276658200179,72.84276658200179,72.84276658200179,72.84276658200179,72.84276658200179,72.84276658200179,l,3.581040874996688,1,2,0,76.44447565500013,77.94679103599992,,,,,,,,,,,,,,,,,,,,,,,,,,,,,,,,,,,,,,,,,,,,,,,,,,,,,,,,,,,,,,,,,,,,,,,,,27754,2022-09-20_13h57.45.396,vts_reward_expectancy_OFFLINE,2022.2.4,60.217879367892955,
0,0,1,0,1,0,0,0,hexagon,triangle,0,0,0,0,0,2,2,6,,,,,,,,,,,,,,,,,,,,,,,,,,,,,,,,,,,,,,,,78.44701890600118,78.44701890600118,78.44701890600118,78.44701890600118,78.44701890600118,78.44701890600118,78.44701890600118,78.44701890600118,78.44701890600118,78.44701890600118,a,4.536473493997619,10,12,0,83.00210065300053,84.51707336300024,,,,,,,,,,,,,,,,,,,,,,,,,,,,,,,,,,,,,,,,,,,,,,,,,,,,,,,,,,,,,,,,,,,,,,,,,27754,2022-09-20_13h57.45.396,vts_reward_expectancy_OFFLINE,2022.2.4,60.217879367892955,
0,0,1,0,0,1,0,0,hexagon,circle,0,0,0,0,0,3,3,7,,,,,,,,,,,,,,,,,,,,,,,,,,,,,,,,,,,,,,,,85.01718535599866,85.01718535599866,85.01718535599866,85.01718535599866,85.01718535599866,85.01718535599866,85.01718535599866,85.01718535599866,85.01718535599866,85.01718535599866,a,1.3989778439972724,10,22,0,86.43496933699862,87.93717756800106,,,,,,,,,,,,,,,,,,,,,,,,,,,,,,,,,,,,,,,,,,,,,,,,,,,,,,,,,,,,,,,,,,,,,,,,,27754,2022-09-20_13h57.45.396,vts_reward_expectancy_OFFLINE,2022.2.4,60.217879367892955,
1,0,0,0,0,0,0,1,triangle,star,0,0,0,0,0,4,4,2,,,,,,,,,,,,,,,,,,,,,,,,,,,,,,,,,,,,,,,,88.43758197900024,88.43758197900024,88.43758197900024,88.43758197900024,88.43758197900024,88.43758197900024,88.43758197900024,88.43758197900024,88.43758197900024,88.43758197900024,a,1.9374818449978193,10,32,0,90.40486840299855,91.90554710099968,91.90554710099968,,,,,,,,,,,,,,,,,,,,,,,,,,,,,,,,,,,,,,,,,,,,,,,,,,,,,,,,,,,,,,,,,,,,,,,,27754,2022-09-20_13h57.45.396,vts_reward_expectancy_OFFLINE,2022.2.4,60.217879367892955,
0,0,1,0,0,0,0,1,hexagon,star,0,0,0,0,0,5,5,8,,,,,,,,,,,,,,,,,,,,,,,,,,,,,,,,,,,,,,,,92.40775101300096,92.40775101300096,92.40775101300096,92.40775101300096,92.40775101300096,92.40775101300096,92.40775101300096,92.40775101300096,92.40775101300096,92.40775101300096,a,1.2397195560006367,1,33,0,93.67451582500144,95.17445679299999,95.17445679299999,95.6745819530006,,,,,,,,,,,,,,,,,,,,,,,,,,,,,,,,,,,,,,,,,,,,,,,,,,,,,,,,,,,,,,,,,,,,,,,27754,2022-09-20_13h57.45.396,vts_reward_expectancy_OFFLINE,2022.2.4,60.217879367892955,
0,0,0,1,1,0,0,0,star,triangle,0,0,0,0,0,6,6,9,,,,,,,,,,,,,,,,,,,,,,,,,,,,,,,,,,,,,,,,95.6745819530006,95.6745819530006,95.6745819530006,95.6745819530006,95.6745819530006,95.6745819530006,95.6745819530006,95.6745819530006,95.6745819530006,95.6745819530006,l,1.725542685999244,10,43,0,97.42791084800047,98.92775630599863,98.92775630599863,99.42805922700063,,,,,,,,,,,,,,,,,,,,,,,,,,,,,,,,,,,,,,,,,,,,,,,,,,,,,,,,,,,,,,,,,,,,,,,27754,2022-09-20_13h57.45.396,vts_reward_expectancy_OFFLINE,2022.2.4,60.217879367892955,
0,1,0,0,1,0,0,0,circle,triangle,0,0,0,0,0,7,7,3,,,,,,,,,,,,,,,,,,,,,,,,,,,,,,,,,,,,,,,,99.42805922700063,99.42805922700063,99.42805922700063,99.42805922700063,99.42805922700063,99.42805922700063,99.42805922700063,99.42805922700063,99.42805922700063,99.42805922700063,l,1.5802840469987132,10,53,0,101.0285651330014,102.53087930499896,,,,,,,,,,,,,,,,,,,,,,,,,,,,,,,,,,,,,,,,,,,,,,,,,,,,,,,,,,,,,,,,,,,,,,,,,27754,2022-09-20_13h57.45.396,vts_reward_expectancy_OFFLINE,2022.2.4,60.217879367892955,
0,0,0,1,0,0,1,0,star,hexagon,0,0,0,0,0,8,8,11,,,,,,,,,,,,,,,,,,,,,,,,,,,,,,,,,,,,,,,,103.031078693999,103.031078693999,103.031078693999,103.031078693999,103.031078693999,103.031078693999,103.031078693999,103.031078693999,103.031078693999,103.031078693999,l,1.5765231489967846,10,63,0,104.6316689669984,106.1323513899988,106.1323513899988,106.63221199400141,,,,,,,,,,,,,,,,,,,,,,,,,,,,,,,,,,,,,,,,,,,,,,,,,,,,,,,,,,,,,,,,,,,,,,,27754,2022-09-20_13h57.45.396,vts_reward_expectancy_OFFLINE,2022.2.4,60.217879367892955,
1,0,0,0,0,0,1,0,triangle,hexagon,0,0,0,0,0,9,9,1,,,,,,,,,,,,,,,,,,,,,,,,,,,,,,,,,,,,,,,,106.63221199400141,106.63221199400141,106.63221199400141,106.63221199400141,106.63221199400141,106.63221199400141,106.63221199400141,106.63221199400141,106.63221199400141,106.63221199400141,a,1.5510525739991863,1,64,0,108.20204408300197,109.70279083700007,109.70279083700007,,,,,,,,,,,,,,,,,,,,,,,,,,,,,,,,,,,,,,,,,,,,,,,,,,,,,,,,,,,,,,,,,,,,,,,,27754,2022-09-20_13h57.45.396,vts_reward_expectancy_OFFLINE,2022.2.4,60.217879367892955,
1,0,0,0,0,1,0,0,triangle,circle,0,0,0,0,0,10,10,0,,,,,,,,,,,,,,,,,,,,,,,,,,,,,,,,,,,,,,,,110.20278222200068,110.20278222200068,110.20278222200068,110.20278222200068,110.20278222200068,110.20278222200068,110.20278222200068,110.20278222200068,110.20278222200068,110.20278222200068,l,1.0768700459993852,1,65,0,111.30293128199992,112.80559517499933,,,,,,,,,,,,,,,,,,,,,,,,,,,,,,,,,,,,,,,,,,,,,,,,,,,,,,,,,,,,,,,,,,,,,,,,,27754,2022-09-20_13h57.45.396,vts_reward_expectancy_OFFLINE,2022.2.4,60.217879367892955,
0,1,0,0,0,0,1,0,circle,hexagon,0,0,0,0,0,11,11,4,,,,,,,,,,,,,,,,,,,,,,,,,,,,,,,,,,,,,,,,113.30561612200108,113.30561612200108,113.30561612200108,113.30561612200108,113.30561612200108,113.30561612200108,113.30561612200108,113.30561612200108,113.30561612200108,113.30561612200108,l,1.4853131460004079,1,66,0,114.82313217800038,116.3235081390012,116.3235081390012,116.82367359500131,,,,,,,,,,,,,,,,,,,,,,,,,,,,,,,,,,,,,,,,,,,,,,,,,,,,,,,,,,,,,,,,,,,,,,,27754,2022-09-20_13h57.45.396,vts_reward_expectancy_OFFLINE,2022.2.4,60.217879367892955,
0,1,0,0,0,0,0,1,circle,star,0,0,0,0,1,0,12,5,,,,,,,,,,,,,,,,,,,,,,,,,,,,,,,,,,,,,,,,116.82367359500131,116.82367359500131,116.82367359500131,116.82367359500131,116.82367359500131,116.82367359500131,116.82367359500131,116.82367359500131,116.82367359500131,116.82367359500131,a,1.0239089009992313,10,76,0,117.87670567700115,119.37657840300017,119.37657840300017,,,,,,,,,,,,,,,,,,,,,,,,,,,,,,,,,,,,,,,,,,,,,,,,,,,,,,,,,,,,,,,,,,,,,,,,27754,2022-09-20_13h57.45.396,vts_reward_expectancy_OFFLINE,2022.2.4,60.217879367892955,
0,0,0,1,0,1,0,0,star ,circle,0,0,0,0,1,1,13,10,,,,,,,,,,,,,,,,,,,,,,,,,,,,,,,,,,,,,,,,119.87658253799964,119.87658253799964,119.87658253799964,119.87658253799964,119.87658253799964,119.87658253799964,119.87658253799964,119.87658253799964,119.87658253799964,119.87658253799964,l,1.7315195299997868,1,77,0,121.62799565100067,123.12912727300136,,,,,,,,,,,,,,,,,,,,,,,,,,,,,,,,,,,,,,,,,,,,,,,,,,,,,,,,,,,,,,,,,,,,,,,,,27754,2022-09-20_13h57.45.396,vts_reward_expectancy_OFFLINE,2022.2.4,60.217879367892955,
0,1,0,0,1,0,0,0,circle,triangle,0,0,0,0,1,2,14,3,,,,,,,,,,,,,,,,,,,,,,,,,,,,,,,,,,,,,,,,123.62892413200098,123.62892413200098,123.62892413200098,123.62892413200098,123.62892413200098,123.62892413200098,123.62892413200098,123.62892413200098,123.62892413200098,123.62892413200098,a,2.8352333039983932,10,87,0,126.48148546399898,127.98294353800156,,,,,,,,,,,,,,,,,,,,,,,,,,,,,,,,,,,,,,,,,,,,,,,,,,,,,,,,,,,,,,,,,,,,,,,,,27754,2022-09-20_13h57.45.396,vts_reward_expectancy_OFFLINE,2022.2.4,60.217879367892955,
0,0,1,0,0,0,0,1,hexagon,star,0,0,0,0,1,3,15,8,,,,,,,,,,,,,,,,,,,,,,,,,,,,,,,,,,,,,,,,128.48336679500062,128.48336679500062,128.48336679500062,128.48336679500062,128.48336679500062,128.48336679500062,128.48336679500062,128.48336679500062,128.48336679500062,128.48336679500062,a,1.5246472860017093,10,97,0,130.03400722399965,131.53459518599993,131.53459518599993,,,,,,,,,,,,,,,,,,,,,,,,,,,,,,,,,,,,,,,,,,,,,,,,,,,,,,,,,,,,,,,,,,,,,,,,27754,2022-09-20_13h57.45.396,vts_reward_expectancy_OFFLINE,2022.2.4,60.217879367892955,
0,0,1,0,1,0,0,0,hexagon,triangle,0,0,0,0,1,4,16,6,,,,,,,,,,,,,,,,,,,,,,,,,,,,,,,,,,,,,,,,132.03451897700143,132.03451897700143,132.03451897700143,132.03451897700143,132.03451897700143,132.03451897700143,132.03451897700143,132.03451897700143,132.03451897700143,132.03451897700143,l,2.3653794799975003,1,98,0,134.4207662129993,135.92117055999915,135.92117055999915,136.42121937100092,,,,,,,,,,,,,,,,,,,,,,,,,,,,,,,,,,,,,,,,,,,,,,,,,,,,,,,,,,,,,,,,,,,,,,,27754,2022-09-20_13h57.45.396,vts_reward_expectancy_OFFLINE,2022.2.4,60.217879367892955,
0,0,0,1,1,0,0,0,star,triangle,0,0,0,0,1,5,17,9,,,,,,,,,,,,,,,,,,,,,,,,,,,,,,,,,,,,,,,,136.42121937100092,136.42121937100092,136.42121937100092,136.42121937100092,136.42121937100092,136.42121937100092,136.42121937100092,136.42121937100092,136.42121937100092,136.42121937100092,l,0.9788116359995911,10,108,0,137.42396367399851,138.92413951900016,138.92413951900016,139.42424499700064,,,,,,,,,,,,,,,,,,,,,,,,,,,,,,,,,,,,,,,,,,,,,,,,,,,,,,,,,,,,,,,,,,,,,,,27754,2022-09-20_13h57.45.396,vts_reward_expectancy_OFFLINE,2022.2.4,60.217879367892955,
1,0,0,0,0,1,0,0,triangle,circle,0,0,0,0,1,6,18,0,,,,,,,,,,,,,,,,,,,,,,,,,,,,,,,,,,,,,,,,139.42424499700064,139.42424499700064,139.42424499700064,139.42424499700064,139.42424499700064,139.42424499700064,139.42424499700064,139.42424499700064,139.42424499700064,139.42424499700064,l,2.903295894000621,1,109,0,142.36013526199895,143.8603165550012,143.8603165550012,,,,,,,,,,,,,,,,,,,,,,,,,,,,,,,,,,,,,,,,,,,,,,,,,,,,,,,,,,,,,,,,,,,,,,,,27754,2022-09-20_13h57.45.396,vts_reward_expectancy_OFFLINE,2022.2.4,60.217879367892955,
1,0,0,0,0,0,0,1,triangle,star,0,0,0,0,1,7,19,2,,,,,,,,,,,,,,,,,,,,,,,,,,,,,,,,,,,,,,,,144.36057681300008,144.36057681300008,144.36057681300008,144.36057681300008,144.36057681300008,144.36057681300008,144.36057681300008,144.36057681300008,144.36057681300008,144.36057681300008,a,1.351267835998442,1,110,0,145.74537275400144,147.24311355600003,147.24311355600003,,,,,,,,,,,,,,,,,,,,,,,,,,,,,,,,,,,,,,,,,,,,,,,,,,,,,,,,,,,,,,,,,,,,,,,,27754,2022-09-20_13h57.45.396,vts_reward_expectancy_OFFLINE,2022.2.4,60.217879367892955,
1,0,0,0,0,0,1,0,triangle,hexagon,0,0,0,0,1,8,20,1,,,,,,,,,,,,,,,,,,,,,,,,,,,,,,,,,,,,,,,,147.74746503200004,147.74746503200004,147.74746503200004,147.74746503200004,147.74746503200004,147.74746503200004,147.74746503200004,147.74746503200004,147.74746503200004,147.74746503200004,a,1.3488745559989184,10,120,0,149.11492732199986,150.61459161699895,150.61459161699895,,,,,,,,,,,,,,,,,,,,,,,,,,,,,,,,,,,,,,,,,,,,,,,,,,,,,,,,,,,,,,,,,,,,,,,,27754,2022-09-20_13h57.45.396,vts_reward_expectancy_OFFLINE,2022.2.4,60.217879367892955,
0,0,1,0,0,1,0,0,hexagon,circle,0,0,0,0,1,9,21,7,,,,,,,,,,,,,,,,,,,,,,,,,,,,,,,,,,,,,,,,151.11521478400027,151.11521478400027,151.11521478400027,151.11521478400027,151.11521478400027,151.11521478400027,151.11521478400027,151.11521478400027,151.11521478400027,151.11521478400027,l,0.9960227320007107,1,121,0,152.13278902399907,153.63511179499983,,,,,,,,,,,,,,,,,,,,,,,,,,,,,,,,,,,,,,,,,,,,,,,,,,,,,,,,,,,,,,,,,,,,,,,,,27754,2022-09-20_13h57.45.396,vts_reward_expectancy_OFFLINE,2022.2.4,60.217879367892955,
0,0,0,1,0,0,1,0,star,hexagon,0,0,0,0,1,10,22,11,,,,,,,,,,,,,,,,,,,,,,,,,,,,,,,,,,,,,,,,154.1349033890001,154.1349033890001,154.1349033890001,154.1349033890001,154.1349033890001,154.1349033890001,154.1349033890001,154.1349033890001,154.1349033890001,154.1349033890001,l,0.9292839459994866,10,131,0,155.08558753300167,156.58609414700186,156.58609414700186,,,,,,,,,,,,,,,,,,,,,,,,,,,,,,,,,,,,,,,,,,,,,,,,,,,,,,,,,,,,,,,,,,,,,,,,27754,2022-09-20_13h57.45.396,vts_reward_expectancy_OFFLINE,2022.2.4,60.217879367892955,
0,1,0,0,0,0,1,0,circle,hexagon,0,0,0,0,1,11,23,4,,,,,,,,,,,,,,,,,,,,,,,,,,,,,,,,,,,,,,,,157.08584982400134,157.08584982400134,157.08584982400134,157.08584982400134,157.08584982400134,157.08584982400134,157.08584982400134,157.08584982400134,157.08584982400134,157.08584982400134,a,2.1461578630005533,1,132,0,159.25609883500147,160.7559384269989,160.7559384269989,,,,,,,,,,,,,,,,,,,,,,,,,,,,,,,,,,,,,,,,,,,,,,,,,,,,,,,,,,,,,,,,,,,,,,,,27754,2022-09-20_13h57.45.396,vts_reward_expectancy_OFFLINE,2022.2.4,60.217879367892955,
0,1,0,0,1,0,0,0,circle,triangle,0,0,0,0,2,0,24,3,,,,,,,,,,,,,,,,,,,,,,,,,,,,,,,,,,,,,,,,161.25612140500016,161.25612140500016,161.25612140500016,161.25612140500016,161.25612140500016,161.25612140500016,161.25612140500016,161.25612140500016,161.25612140500016,161.25612140500016,l,1.4635293989995262,10,142,0,162.74190261699914,164.24245072000122,164.24245072000122,164.7427008759987,,,,,,,,,,,,,,,,,,,,,,,,,,,,,,,,,,,,,,,,,,,,,,,,,,,,,,,,,,,,,,,,,,,,,,,27754,2022-09-20_13h57.45.396,vts_reward_expectancy_OFFLINE,2022.2.4,60.217879367892955,
0,0,1,0,0,1,0,0,hexagon,circle,0,0,0,0,2,1,25,7,,,,,,,,,,,,,,,,,,,,,,,,,,,,,,,,,,,,,,,,164.7427008759987,164.7427008759987,164.7427008759987,164.7427008759987,164.7427008759987,164.7427008759987,164.7427008759987,164.7427008759987,164.7427008759987,164.7427008759987,a,0.6965223349980079,10,152,0,165.45963425000082,166.95986183200148,166.95986183200148,,,,,,,,,,,,,,,,,,,,,,,,,,,,,,,,,,,,,,,,,,,,,,,,,,,,,,,,,,,,,,,,,,,,,,,,27754,2022-09-20_13h57.45.396,vts_reward_expectancy_OFFLINE,2022.2.4,60.217879367892955,
0,0,0,1,0,0,1,0,star,hexagon,0,0,0,0,2,2,26,11,,,,,,,,,,,,,,,,,,,,,,,,,,,,,,,,,,,,,,,,167.4621980970005,167.4621980970005,167.4621980970005,167.4621980970005,167.4621980970005,167.4621980970005,167.4621980970005,167.4621980970005,167.4621980970005,167.4621980970005,l,0.9374198209989117,10,162,0,168.4284712910012,169.92913991100068,169.92913991100068,170.42921751299946,,,,,,,,,,,,,,,,,,,,,,,,,,,,,,,,,,,,,,,,,,,,,,,,,,,,,,,,,,,,,,,,,,,,,,,27754,2022-09-20_13h57.45.396,vts_reward_expectancy_OFFLINE,2022.2.4,60.217879367892955,
1,0,0,0,0,0,1,0,triangle,hexagon,0,0,0,0,2,3,27,1,,,,,,,,,,,,,,,,,,,,,,,,,,,,,,,,,,,,,,,,170.42921751299946,170.42921751299946,170.42921751299946,170.42921751299946,170.42921751299946,170.42921751299946,170.42921751299946,170.42921751299946,170.42921751299946,170.42921751299946,l,2.858360875998187,1,163,0,173.31680001100176,174.8166573160015,,,,,,,,,,,,,,,,,,,,,,,,,,,,,,,,,,,,,,,,,,,,,,,,,,,,,,,,,,,,,,,,,,,,,,,,,27754,2022-09-20_13h57.45.396,vts_reward_expectancy_OFFLINE,2022.2.4,60.217879367892955,
1,0,0,0,0,0,0,1,triangle,star,0,0,0,0,2,4,28,2,,,,,,,,,,,,,,,,,,,,,,,,,,,,,,,,,,,,,,,,175.3167210060019,175.3167210060019,175.3167210060019,175.3167210060019,175.3167210060019,175.3167210060019,175.3167210060019,175.3167210060019,175.3167210060019,175.3167210060019,a,0.9703636289996211,1,164,0,176.3169675909994,177.8195399219985,,,,,,,,,,,,,,,,,,,,,,,,,,,,,,,,,,,,,,,,,,,,,,,,,,,,,,,,,,,,,,,,,,,,,,,,,27754,2022-09-20_13h57.45.396,vts_reward_expectancy_OFFLINE,2022.2.4,60.217879367892955,
0,0,0,1,1,0,0,0,star,triangle,0,0,0,0,2,5,29,9,,,,,,,,,,,,,,,,,,,,,,,,,,,,,,,,,,,,,,,,178.31960885399894,178.31960885399894,178.31960885399894,178.31960885399894,178.31960885399894,178.31960885399894,178.31960885399894,178.31960885399894,178.31960885399894,178.31960885399894,l,1.2320901569983107,10,174,0,179.5707816239992,181.0706289310001,181.0706289310001,,,,,,,,,,,,,,,,,,,,,,,,,,,,,,,,,,,,,,,,,,,,,,,,,,,,,,,,,,,,,,,,,,,,,,,,27754,2022-09-20_13h57.45.396,vts_reward_expectancy_OFFLINE,2022.2.4,60.217879367892955,
0,1,0,0,0,0,0,1,circle,star,0,0,0,0,2,6,30,5,,,,,,,,,,,,,,,,,,,,,,,,,,,,,,,,,,,,,,,,181.57091334100187,181.57091334100187,181.57091334100187,181.57091334100187,181.57091334100187,181.57091334100187,181.57091334100187,181.57091334100187,181.57091334100187,181.57091334100187,a,1.2203022579997196,1,175,0,182.82312598999852,184.32368958699954,184.32368958699954,184.8239614890008,,,,,,,,,,,,,,,,,,,,,,,,,,,,,,,,,,,,,,,,,,,,,,,,,,,,,,,,,,,,,,,,,,,,,,,27754,2022-09-20_13h57.45.396,vts_reward_expectancy_OFFLINE,2022.2.4,60.217879367892955,
0,1,0,0,0,0,1,0,circle,hexagon,0,0,0,0,2,7,31,4,,,,,,,,,,,,,,,,,,,,,,,,,,,,,,,,,,,,,,,,184.8239614890008,184.8239614890008,184.8239614890008,184.8239614890008,184.8239614890008,184.8239614890008,184.8239614890008,184.8239614890008,184.8239614890008,184.8239614890008,a,3.455502074000833,10,185,0,188.31031217000054,189.8107950090016,189.8107950090016,190.31089360699843,,,,,,,,,,,,,,,,,,,,,,,,,,,,,,,,,,,,,,,,,,,,,,,,,,,,,,,,,,,,,,,,,,,,,,,27754,2022-09-20_13h57.45.396,vts_reward_expectancy_OFFLINE,2022.2.4,60.217879367892955,
0,0,1,0,1,0,0,0,hexagon,triangle,0,0,0,0,2,8,32,6,,,,,,,,,,,,,,,,,,,,,,,,,,,,,,,,,,,,,,,,190.31089360699843,190.31089360699843,190.31089360699843,190.31089360699843,190.31089360699843,190.31089360699843,190.31089360699843,190.31089360699843,190.31089360699843,190.31089360699843,l,3.1206620990014926,1,186,0,193.45044551500177,194.96388996500173,,,,,,,,,,,,,,,,,,,,,,,,,,,,,,,,,,,,,,,,,,,,,,,,,,,,,,,,,,,,,,,,,,,,,,,,,27754,2022-09-20_13h57.45.396,vts_reward_expectancy_OFFLINE,2022.2.4,60.217879367892955,
0,0,1,0,0,0,0,1,hexagon,star,0,0,0,0,2,9,33,8,,,,,,,,,,,,,,,,,,,,,,,,,,,,,,,,,,,,,,,,195.46404515800168,195.46404515800168,195.46404515800168,195.46404515800168,195.46404515800168,195.46404515800168,195.46404515800168,195.46404515800168,195.46404515800168,195.46404515800168,a,2.440015394000511,10,196,0,197.93961596900044,199.45057512100175,,,,,,,,,,,,,,,,,,,,,,,,,,,,,,,,,,,,,,,,,,,,,,,,,,,,,,,,,,,,,,,,,,,,,,,,,27754,2022-09-20_13h57.45.396,vts_reward_expectancy_OFFLINE,2022.2.4,60.217879367892955,
0,0,0,1,0,1,0,0,star ,circle,0,0,0,0,2,10,34,10,,,,,,,,,,,,,,,,,,,,,,,,,,,,,,,,,,,,,,,,199.95081139399917,199.95081139399917,199.95081139399917,199.95081139399917,199.95081139399917,199.95081139399917,199.95081139399917,199.95081139399917,199.95081139399917,199.95081139399917,l,0.7367311709967908,1,197,0,200.719611935001,202.23545718700188,,,,,,,,,,,,,,,,,,,,,,,,,,,,,,,,,,,,,,,,,,,,,,,,,,,,,,,,,,,,,,,,,,,,,,,,,27754,2022-09-20_13h57.45.396,vts_reward_expectancy_OFFLINE,2022.2.4,60.217879367892955,
1,0,0,0,0,1,0,0,triangle,circle,0,0,0,0,2,11,35,0,,,,,,,,,,,,,,,,,,,,,,,,,,,,,,,,,,,,,,,,202.72079768899857,202.72079768899857,202.72079768899857,202.72079768899857,202.72079768899857,202.72079768899857,202.72079768899857,202.72079768899857,202.72079768899857,202.72079768899857,a,1.0949954450006771,10,207,0,203.83970619500178,205.35457445499924,,,,,,,,,,,,,,,,,,,,,,,,,,,,,,,,,,,,,,,,,,,,,,,,,,,,,,,,,,,,,,,,,,,,,,,,,27754,2022-09-20_13h57.45.396,vts_reward_expectancy_OFFLINE,2022.2.4,60.217879367892955,
0,1,0,0,1,0,0,0,circle,triangle,1,0,1,0,0,0,0,3,,,,,,,,,,,,,,,,,,,,,,,,,,,,,,,,,,,,,,,,211.9204713049985,211.9204713049985,211.9204713049985,211.9204713049985,211.9204713049985,211.9204713049985,211.9204713049985,211.9204713049985,211.9204713049985,211.9204713049985,l,2.5430710859982355,10,217,1,214.49572107399945,215.9961942359987,215.9961942359987,216.49648448000153,,,,,,,,,,,,,,,,,,,,,,,,,,,,,,,,,,,,,,,,,,,,,,,,,,,,,,,,,,,,,,,,,,,,,,,27754,2022-09-20_13h57.45.396,vts_reward_expectancy_OFFLINE,2022.2.4,60.217879367892955,
0,0,0,1,1,0,0,0,star,triangle,1,0,1,0,0,1,1,9,,,,,,,,,,,,,,,,,,,,,,,,,,,,,,,,,,,,,,,,216.49648448000153,216.49648448000153,216.49648448000153,216.49648448000153,216.49648448000153,216.49648448000153,216.49648448000153,216.49648448000153,216.49648448000153,216.49648448000153,l,0.9511586250009714,1,218,1,217.46653278500162,218.96505180199892,218.96505180199892,219.46563108899863,,,,,,,,,,,,,,,,,,,,,,,,,,,,,,,,,,,,,,,,,,,,,,,,,,,,,,,,,,,,,,,,,,,,,,,27754,2022-09-20_13h57.45.396,vts_reward_expectancy_OFFLINE,2022.2.4,60.217879367892955,
0,0,1,0,0,1,0,0,hexagon,circle,1,0,1,0,0,2,2,7,,,,,,,,,,,,,,,,,,,,,,,,,,,,,,,,,,,,,,,,219.46563108899863,219.46563108899863,219.46563108899863,219.46563108899863,219.46563108899863,219.46563108899863,219.46563108899863,219.46563108899863,219.46563108899863,219.46563108899863,a,2.805596714002604,10,228,1,222.2995283900018,223.8028560370003,,,,,,,,,,,,,,,,,,,,,,,,,,,,,,,,,,,,,,,,,,,,,,,,,,,,,,,,,,,,,,,,,,,,,,,,,27754,2022-09-20_13h57.45.396,vts_reward_expectancy_OFFLINE,2022.2.4,60.217879367892955,
0,0,0,1,0,0,1,0,star,hexagon,1,0,1,0,0,3,3,11,,,,,,,,,,,,,,,,,,,,,,,,,,,,,,,,,,,,,,,,224.30338033999942,224.30338033999942,224.30338033999942,224.30338033999942,224.30338033999942,224.30338033999942,224.30338033999942,224.30338033999942,224.30338033999942,224.30338033999942,l,1.5037561719982477,1,229,1,225.83797023599982,227.33916251700066,,,,,,,,,,,,,,,,,,,,,,,,,,,,,,,,,,,,,,,,,,,,,,,,,,,,,,,,,,,,,,,,,,,,,,,,,27754,2022-09-20_13h57.45.396,vts_reward_expectancy_OFFLINE,2022.2.4,60.217879367892955,
0,0,1,0,1,0,0,0,hexagon,triangle,1,0,1,0,0,4,4,6,,,,,,,,,,,,,,,,,,,,,,,,,,,,,,,,,,,,,,,,227.8391498689998,227.8391498689998,227.8391498689998,227.8391498689998,227.8391498689998,227.8391498689998,227.8391498689998,227.8391498689998,227.8391498689998,227.8391498689998,a,2.192931948997284,10,239,1,230.0587604829998,231.57312489200194,,,,,,,,,,,,,,,,,,,,,,,,,,,,,,,,,,,,,,,,,,,,,,,,,,,,,,,,,,,,,,,,,,,,,,,,,27754,2022-09-20_13h57.45.396,vts_reward_expectancy_OFFLINE,2022.2.4,60.217879367892955,
0,1,0,0,0,0,1,0,circle,hexagon,1,0,1,0,0,5,5,4,,,,,,,,,,,,,,,,,,,,,,,,,,,,,,,,,,,,,,,,232.0575740150016,232.0575740150016,232.0575740150016,232.0575740150016,232.0575740150016,232.0575740150016,232.0575740150016,232.0575740150016,232.0575740150016,232.0575740150016,a,2.733549149001192,1,240,1,234.812563503001,236.3268720269989,,,,,,,,,,,,,,,,,,,,,,,,,,,,,,,,,,,,,,,,,,,,,,,,,,,,,,,,,,,,,,,,,,,,,,,,,27754,2022-09-20_13h57.45.396,vts_reward_expectancy_OFFLINE,2022.2.4,60.217879367892955,
0,0,1,0,0,0,0,1,hexagon,star,1,0,1,0,0,6,6,8,,,,,,,,,,,,,,,,,,,,,,,,,,,,,,,,,,,,,,,,236.81096785000045,236.81096785000045,236.81096785000045,236.81096785000045,236.81096785000045,236.81096785000045,236.81096785000045,236.81096785000045,236.81096785000045,236.81096785000045,a,1.012880681999377,10,250,1,237.84801127500032,239.36394359000042,,,,,,,,,,,,,,,,,,,,,,,,,,,,,,,,,,,,,,,,,,,,,,,,,,,,,,,,,,,,,,,,,,,,,,,,,27754,2022-09-20_13h57.45.396,vts_reward_expectancy_OFFLINE,2022.2.4,60.217879367892955,
0,0,0,1,0,1,0,0,star ,circle,1,0,1,0,0,7,7,10,,,,,,,,,,,,,,,,,,,,,,,,,,,,,,,,,,,,,,,,239.84714163800163,239.84714163800163,239.84714163800163,239.84714163800163,239.84714163800163,239.84714163800163,239.84714163800163,239.84714163800163,239.84714163800163,239.84714163800163,l,1.1359984379996604,1,251,1,241.016470210001,242.5167205709986,,,,,,,,,,,,,,,,,,,,,,,,,,,,,,,,,,,,,,,,,,,,,,,,,,,,,,,,,,,,,,,,,,,,,,,,,27754,2022-09-20_13h57.45.396,vts_reward_expectancy_OFFLINE,2022.2.4,60.217879367892955,
1,0,0,0,0,0,1,0,triangle,hexagon,1,0,1,0,0,8,8,1,,,,,,,,,,,,,,,,,,,,,,,,,,,,,,,,,,,,,,,,243.01681629700033,243.01681629700033,243.01681629700033,243.01681629700033,243.01681629700033,243.01681629700033,243.01681629700033,243.01681629700033,243.01681629700033,243.01681629700033,l,3.8542706839980383,1,252,1,246.901458438002,248.40406597000037,,,,,,,,,,,,,,,,,,,,,,,,,,,,,,,,,,,,,,,,,,,,,,,,,,,,,,,,,,,,,,,,,,,,,,,,,27754,2022-09-20_13h57.45.396,vts_reward_expectancy_OFFLINE,2022.2.4,60.217879367892955,
1,0,0,0,0,0,0,1,triangle,star,1,0,1,0,0,9,9,2,,,,,,,,,,,,,,,,,,,,,,,,,,,,,,,,,,,,,,,,248.90412620500138,248.90412620500138,248.90412620500138,248.90412620500138,248.90412620500138,248.90412620500138,248.90412620500138,248.90412620500138,248.90412620500138,248.90412620500138,a,2.9196977819992753,1,253,1,251.85510951700053,253.35737158499978,253.35737158499978,,,,,,,,,,,,,,,,,,,,,,,,,,,,,,,,,,,,,,,,,,,,,,,,,,,,,,,,,,,,,,,,,,,,,,,,27754,2022-09-20_13h57.45.396,vts_reward_expectancy_OFFLINE,2022.2.4,60.217879367892955,
1,0,0,0,0,1,0,0,triangle,circle,1,0,1,0,0,10,10,0,,,,,,,,,,,,,,,,,,,,,,,,,,,,,,,,,,,,,,,,253.85759159000008,253.85759159000008,253.85759159000008,253.85759159000008,253.85759159000008,253.85759159000008,253.85759159000008,253.85759159000008,253.85759159000008,253.85759159000008,a,2.0141573129985773,10,263,1,255.89333231300043,257.3934993389994,,,,,,,,,,,,,,,,,,,,,,,,,,,,,,,,,,,,,,,,,,,,,,,,,,,,,,,,,,,,,,,,,,,,,,,,,27754,2022-09-20_13h57.45.396,vts_reward_expectancy_OFFLINE,2022.2.4,60.217879367892955,
0,1,0,0,0,0,0,1,circle,star,1,0,1,0,0,11,11,5,,,,,,,,,,,,,,,,,,,,,,,,,,,,,,,,,,,,,,,,257.8936219419993,257.8936219419993,257.8936219419993,257.8936219419993,257.8936219419993,257.8936219419993,257.8936219419993,257.8936219419993,257.8936219419993,257.8936219419993,l,1.4894789319987467,1,264,1,259.41316774200095,260.92869791200064,,,,,,,,,,,,,,,,,,,,,,,,,,,,,,,,,,,,,,,,,,,,,,,,,,,,,,,,,,,,,,,,,,,,,,,,,27754,2022-09-20_13h57.45.396,vts_reward_expectancy_OFFLINE,2022.2.4,60.217879367892955,
0,0,1,0,0,0,0,1,hexagon,star,1,0,1,0,1,0,12,8,,,,,,,,,,,,,,,,,,,,,,,,,,,,,,,,,,,,,,,,261.4288860650013,261.4288860650013,261.4288860650013,261.4288860650013,261.4288860650013,261.4288860650013,261.4288860650013,261.4288860650013,261.4288860650013,261.4288860650013,a,1.0029483630023606,10,274,1,262.46446997300154,263.9649714340012,263.9649714340012,264.4650460740013,,,,,,,,,,,,,,,,,,,,,,,,,,,,,,,,,,,,,,,,,,,,,,,,,,,,,,,,,,,,,,,,,,,,,,,27754,2022-09-20_13h57.45.396,vts_reward_expectancy_OFFLINE,2022.2.4,60.217879367892955,
0,0,0,1,0,0,1,0,star,hexagon,1,0,1,0,1,1,13,11,,,,,,,,,,,,,,,,,,,,,,,,,,,,,,,,,,,,,,,,264.4650460740013,264.4650460740013,264.4650460740013,264.4650460740013,264.4650460740013,264.4650460740013,264.4650460740013,264.4650460740013,264.4650460740013,264.4650460740013,l,0.9668616909984848,10,284,1,265.4488210749987,266.9490910179993,266.9490910179993,,,,,,,,,,,,,,,,,,,,,,,,,,,,,,,,,,,,,,,,,,,,,,,,,,,,,,,,,,,,,,,,,,,,,,,,27754,2022-09-20_13h57.45.396,vts_reward_expectancy_OFFLINE,2022.2.4,60.217879367892955,
0,0,0,1,0,1,0,0,star ,circle,1,0,1,0,1,2,14,10,,,,,,,,,,,,,,,,,,,,,,,,,,,,,,,,,,,,,,,,267.45107886999904,267.45107886999904,267.45107886999904,267.45107886999904,267.45107886999904,267.45107886999904,267.45107886999904,267.45107886999904,267.45107886999904,267.45107886999904,a,1.6691291449969867,10,294,1,269.1515717209986,270.65192786899934,270.65192786899934,271.152191784,,,,,,,,,,,,,,,,,,,,,,,,,,,,,,,,,,,,,,,,,,,,,,,,,,,,,,,,,,,,,,,,,,,,,,,27754,2022-09-20_13h57.45.396,vts_reward_expectancy_OFFLINE,2022.2.4,60.217879367892955,
0,1,0,0,0,0,0,1,circle,star,1,0,1,0,1,3,15,5,,,,,,,,,,,,,,,,,,,,,,,,,,,,,,,,,,,,,,,,271.152191784,271.152191784,271.152191784,271.152191784,271.152191784,271.152191784,271.152191784,271.152191784,271.152191784,271.152191784,l,2.5759731399994052,1,295,1,273.75731173700115,275.2727693810011,,,,,,,,,,,,,,,,,,,,,,,,,,,,,,,,,,,,,,,,,,,,,,,,,,,,,,,,,,,,,,,,,,,,,,,,,27754,2022-09-20_13h57.45.396,vts_reward_expectancy_OFFLINE,2022.2.4,60.217879367892955,
1,0,0,0,0,1,0,0,triangle,circle,1,0,1,0,1,4,16,0,,,,,,,,,,,,,,,,,,,,,,,,,,,,,,,,,,,,,,,,275.7726606460019,275.7726606460019,275.7726606460019,275.7726606460019,275.7726606460019,275.7726606460019,275.7726606460019,275.7726606460019,275.7726606460019,275.7726606460019,a,7.594755793001241,10,305,1,283.39788919000057,284.89680801600116,,,,,,,,,,,,,,,,,,,,,,,,,,,,,,,,,,,,,,,,,,,,,,,,,,,,,,,,,,,,,,,,,,,,,,,,,27754,2022-09-20_13h57.45.396,vts_reward_expectancy_OFFLINE,2022.2.4,60.217879367892955,
0,0,1,0,1,0,0,0,hexagon,triangle,1,0,1,0,1,5,17,6,,,,,,,,,,,,,,,,,,,,,,,,,,,,,,,,,,,,,,,,285.39690171500115,285.39690171500115,285.39690171500115,285.39690171500115,285.39690171500115,285.39690171500115,285.39690171500115,285.39690171500115,285.39690171500115,285.39690171500115,a,1.7064960860006977,10,315,1,287.130773754001,288.63291442099944,,,,,,,,,,,,,,,,,,,,,,,,,,,,,,,,,,,,,,,,,,,,,,,,,,,,,,,,,,,,,,,,,,,,,,,,,27754,2022-09-20_13h57.45.396,vts_reward_expectancy_OFFLINE,2022.2.4,60.217879367892955,
1,0,0,0,0,0,0,1,triangle,star,1,0,1,0,1,6,18,2,,,,,,,,,,,,,,,,,,,,,,,,,,,,,,,,,,,,,,,,289.13341379399935,289.13341379399935,289.13341379399935,289.13341379399935,289.13341379399935,289.13341379399935,289.13341379399935,289.13341379399935,289.13341379399935,289.13341379399935,a,0.914681775997451,1,316,1,290.0688803250014,291.58404682699984,,,,,,,,,,,,,,,,,,,,,,,,,,,,,,,,,,,,,,,,,,,,,,,,,,,,,,,,,,,,,,,,,,,,,,,,,27754,2022-09-20_13h57.45.396,vts_reward_expectancy_OFFLINE,2022.2.4,60.217879367892955,
0,1,0,0,1,0,0,0,circle,triangle,1,0,1,0,1,7,19,3,,,,,,,,,,,,,,,,,,,,,,,,,,,,,,,,,,,,,,,,292.0841489099985,292.0841489099985,292.0841489099985,292.0841489099985,292.0841489099985,292.0841489099985,292.0841489099985,292.0841489099985,292.0841489099985,292.0841489099985,l,1.843746356000338,1,317,1,293.9538650399991,295.45410650100166,295.45410650100166,295.9541356849986,,,,,,,,,,,,,,,,,,,,,,,,,,,,,,,,,,,,,,,,,,,,,,,,,,,,,,,,,,,,,,,,,,,,,,,27754,2022-09-20_13h57.45.396,vts_reward_expectancy_OFFLINE,2022.2.4,60.217879367892955,
0,0,1,0,0,1,0,0,hexagon,circle,1,0,1,0,1,8,20,7,,,,,,,,,,,,,,,,,,,,,,,,,,,,,,,,,,,,,,,,295.9541356849986,295.9541356849986,295.9541356849986,295.9541356849986,295.9541356849986,295.9541356849986,295.9541356849986,295.9541356849986,295.9541356849986,295.9541356849986,a,2.1330902769987006,10,327,1,298.10889787199994,299.60757311600173,,,,,,,,,,,,,,,,,,,,,,,,,,,,,,,,,,,,,,,,,,,,,,,,,,,,,,,,,,,,,,,,,,,,,,,,,27754,2022-09-20_13h57.45.396,vts_reward_expectancy_OFFLINE,2022.2.4,60.217879367892955,
0,0,0,1,1,0,0,0,star,triangle,1,0,1,0,1,9,21,9,,,,,,,,,,,,,,,,,,,,,,,,,,,,,,,,,,,,,,,,300.1076794319997,300.1076794319997,300.1076794319997,300.1076794319997,300.1076794319997,300.1076794319997,300.1076794319997,300.1076794319997,300.1076794319997,300.1076794319997,l,1.0359874259993376,10,337,1,301.1743380279986,302.67633360699983,,,,,,,,,,,,,,,,,,,,,,,,,,,,,,,,,,,,,,,,,,,,,,,,,,,,,,,,,,,,,,,,,,,,,,,,,27754,2022-09-20_13h57.45.396,vts_reward_expectancy_OFFLINE,2022.2.4,60.217879367892955,
1,0,0,0,0,0,1,0,triangle,hexagon,1,0,1,0,1,10,22,1,,,,,,,,,,,,,,,,,,,,,,,,,,,,,,,,,,,,,,,,303.17658216700147,303.17658216700147,303.17658216700147,303.17658216700147,303.17658216700147,303.17658216700147,303.17658216700147,303.17658216700147,303.17658216700147,303.17658216700147,l,1.143555420996563,1,338,1,304.3461871340005,305.86122307000187,,,,,,,,,,,,,,,,,,,,,,,,,,,,,,,,,,,,,,,,,,,,,,,,,,,,,,,,,,,,,,,,,,,,,,,,,27754,2022-09-20_13h57.45.396,vts_reward_expectancy_OFFLINE,2022.2.4,60.217879367892955,
0,1,0,0,0,0,1,0,circle,hexagon,1,0,1,0,1,11,23,4,,,,,,,,,,,,,,,,,,,,,,,,,,,,,,,,,,,,,,,,306.3615838930018,306.3615838930018,306.3615838930018,306.3615838930018,306.3615838930018,306.3615838930018,306.3615838930018,306.3615838930018,306.3615838930018,306.3615838930018,l,1.2695376859992393,1,339,1,307.66386836899983,309.1645927310019,309.1645927310019,309.6651579870013,,,,,,,,,,,,,,,,,,,,,,,,,,,,,,,,,,,,,,,,,,,,,,,,,,,,,,,,,,,,,,,,,,,,,,,27754,2022-09-20_13h57.45.396,vts_reward_expectancy_OFFLINE,2022.2.4,60.217879367892955,
0,1,0,0,0,0,1,0,circle,hexagon,1,0,1,0,2,0,24,4,,,,,,,,,,,,,,,,,,,,,,,,,,,,,,,,,,,,,,,,309.6651579870013,309.6651579870013,309.6651579870013,309.6651579870013,309.6651579870013,309.6651579870013,309.6651579870013,309.6651579870013,309.6651579870013,309.6651579870013,l,0.798126185000001,10,349,1,310.4829953619992,311.9815305789998,,,,,,,,,,,,,,,,,,,,,,,,,,,,,,,,,,,,,,,,,,,,,,,,,,,,,,,,,,,,,,,,,,,,,,,,,27754,2022-09-20_13h57.45.396,vts_reward_expectancy_OFFLINE,2022.2.4,60.217879367892955,
0,1,0,0,0,0,0,1,circle,star,1,0,1,0,2,1,25,5,,,,,,,,,,,,,,,,,,,,,,,,,,,,,,,,,,,,,,,,312.4836615210006,312.4836615210006,312.4836615210006,312.4836615210006,312.4836615210006,312.4836615210006,312.4836615210006,312.4836615210006,312.4836615210006,312.4836615210006,l,1.9795615000002726,10,359,1,314.48458143300013,315.98470475200156,315.98470475200156,316.485110900001,,,,,,,,,,,,,,,,,,,,,,,,,,,,,,,,,,,,,,,,,,,,,,,,,,,,,,,,,,,,,,,,,,,,,,,27754,2022-09-20_13h57.45.396,vts_reward_expectancy_OFFLINE,2022.2.4,60.217879367892955,
0,0,0,1,1,0,0,0,star,triangle,1,0,1,0,2,2,26,9,,,,,,,,,,,,,,,,,,,,,,,,,,,,,,,,,,,,,,,,316.485110900001,316.485110900001,316.485110900001,316.485110900001,316.485110900001,316.485110900001,316.485110900001,316.485110900001,316.485110900001,316.485110900001,l,1.746960501997819,1,360,1,318.2562009710018,319.7551511929996,,,,,,,,,,,,,,,,,,,,,,,,,,,,,,,,,,,,,,,,,,,,,,,,,,,,,,,,,,,,,,,,,,,,,,,,,27754,2022-09-20_13h57.45.396,vts_reward_expectancy_OFFLINE,2022.2.4,60.217879367892955,
1,0,0,0,0,0,0,1,triangle,star,1,0,1,0,2,3,27,2,,,,,,,,,,,,,,,,,,,,,,,,,,,,,,,,,,,,,,,,320.2553472899999,320.2553472899999,320.2553472899999,320.2553472899999,320.2553472899999,320.2553472899999,320.2553472899999,320.2553472899999,320.2553472899999,320.2553472899999,a,3.5999402510024083,10,370,1,323.87798987399947,325.3917247249992,,,,,,,,,,,,,,,,,,,,,,,,,,,,,,,,,,,,,,,,,,,,,,,,,,,,,,,,,,,,,,,,,,,,,,,,,27754,2022-09-20_13h57.45.396,vts_reward_expectancy_OFFLINE,2022.2.4,60.217879367892955,
0,0,1,0,0,1,0,0,hexagon,circle,1,0,1,0,2,4,28,7,,,,,,,,,,,,,,,,,,,,,,,,,,,,,,,,,,,,,,,,325.8919256010013,325.8919256010013,325.8919256010013,325.8919256010013,325.8919256010013,325.8919256010013,325.8919256010013,325.8919256010013,325.8919256010013,325.8919256010013,l,5.33991498999967,1,371,1,331.26334354400024,332.7654328530007,332.7654328530007,333.26545371700195,,,,,,,,,,,,,,,,,,,,,,,,,,,,,,,,,,,,,,,,,,,,,,,,,,,,,,,,,,,,,,,,,,,,,,,27754,2022-09-20_13h57.45.396,vts_reward_expectancy_OFFLINE,2022.2.4,60.217879367892955,
1,0,0,0,0,0,1,0,triangle,hexagon,1,0,1,0,2,5,29,1,,,,,,,,,,,,,,,,,,,,,,,,,,,,,,,,,,,,,,,,333.26545371700195,333.26545371700195,333.26545371700195,333.26545371700195,333.26545371700195,333.26545371700195,333.26545371700195,333.26545371700195,333.26545371700195,333.26545371700195,l,1.6216250270008459,10,381,1,334.918102181,336.43363307099935,,,,,,,,,,,,,,,,,,,,,,,,,,,,,,,,,,,,,,,,,,,,,,,,,,,,,,,,,,,,,,,,,,,,,,,,,27754,2022-09-20_13h57.45.396,vts_reward_expectancy_OFFLINE,2022.2.4,60.217879367892955,
1,0,0,0,0,1,0,0,triangle,circle,1,0,1,0,2,6,30,0,,,,,,,,,,,,,,,,,,,,,,,,,,,,,,,,,,,,,,,,336.93363375699846,336.93363375699846,336.93363375699846,336.93363375699846,336.93363375699846,336.93363375699846,336.93363375699846,336.93363375699846,336.93363375699846,336.93363375699846,a,3.841670333997172,10,391,1,340.8034842289999,342.3034693920017,342.3034693920017,,,,,,,,,,,,,,,,,,,,,,,,,,,,,,,,,,,,,,,,,,,,,,,,,,,,,,,,,,,,,,,,,,,,,,,,27754,2022-09-20_13h57.45.396,vts_reward_expectancy_OFFLINE,2022.2.4,60.217879367892955,
0,0,0,1,0,1,0,0,star ,circle,1,0,1,0,2,7,31,10,,,,,,,,,,,,,,,,,,,,,,,,,,,,,,,,,,,,,,,,342.8053699890006,342.8053699890006,342.8053699890006,342.8053699890006,342.8053699890006,342.8053699890006,342.8053699890006,342.8053699890006,342.8053699890006,342.8053699890006,a,1.9861419109984126,10,401,1,344.8236015479997,346.3241066160008,346.3241066160008,346.8241946749986,,,,,,,,,,,,,,,,,,,,,,,,,,,,,,,,,,,,,,,,,,,,,,,,,,,,,,,,,,,,,,,,,,,,,,,27754,2022-09-20_13h57.45.396,vts_reward_expectancy_OFFLINE,2022.2.4,60.217879367892955,
0,1,0,0,1,0,0,0,circle,triangle,1,0,1,0,2,8,32,3,,,,,,,,,,,,,,,,,,,,,,,,,,,,,,,,,,,,,,,,346.8241946749986,346.8241946749986,346.8241946749986,346.8241946749986,346.8241946749986,346.8241946749986,346.8241946749986,346.8241946749986,346.8241946749986,346.8241946749986,a,2.7914637590001803,1,402,1,349.6464256549989,351.16015866900125,,,,,,,,,,,,,,,,,,,,,,,,,,,,,,,,,,,,,,,,,,,,,,,,,,,,,,,,,,,,,,,,,,,,,,,,,27754,2022-09-20_13h57.45.396,vts_reward_expectancy_OFFLINE,2022.2.4,60.217879367892955,
0,0,1,0,1,0,0,0,hexagon,triangle,1,0,1,0,2,9,33,6,,,,,,,,,,,,,,,,,,,,,,,,,,,,,,,,,,,,,,,,351.6498343739986,351.6498343739986,351.6498343739986,351.6498343739986,351.6498343739986,351.6498343739986,351.6498343739986,351.6498343739986,351.6498343739986,351.6498343739986,a,1.3901635159963917,10,412,1,353.0650487560015,354.580948417999,,,,,,,,,,,,,,,,,,,,,,,,,,,,,,,,,,,,,,,,,,,,,,,,,,,,,,,,,,,,,,,,,,,,,,,,,27754,2022-09-20_13h57.45.396,vts_reward_expectancy_OFFLINE,2022.2.4,60.217879367892955,
0,0,0,1,0,0,1,0,star,hexagon,1,0,1,0,2,10,34,11,,,,,,,,,,,,,,,,,,,,,,,,,,,,,,,,,,,,,,,,355.08092524899985,355.08092524899985,355.08092524899985,355.08092524899985,355.08092524899985,355.08092524899985,355.08092524899985,355.08092524899985,355.08092524899985,355.08092524899985,l,1.8152117559984617,10,422,1,356.91448787899935,358.41658600200026,,,,,,,,,,,,,,,,,,,,,,,,,,,,,,,,,,,,,,,,,,,,,,,,,,,,,,,,,,,,,,,,,,,,,,,,,27754,2022-09-20_13h57.45.396,vts_reward_expectancy_OFFLINE,2022.2.4,60.217879367892955,
0,0,1,0,0,0,0,1,hexagon,star,1,0,1,0,2,11,35,8,,,,,,,,,,,,,,,,,,,,,,,,,,,,,,,,,,,,,,,,358.91685295700154,358.91685295700154,358.91685295700154,358.91685295700154,358.91685295700154,358.91685295700154,358.91685295700154,358.91685295700154,358.91685295700154,358.91685295700154,l,1.7148161839977547,1,423,1,360.6536855429986,362.16791831500086,,,,,,,,,,,,,,,,,,,,,,,,,,,,,,,,,,,,,,,,,,,,,,,,,,,,,,,,,,,,,,,,,,,,,,,,,27754,2022-09-20_13h57.45.396,vts_reward_expectancy_OFFLINE,2022.2.4,60.217879367892955,
0,0,0,1,1,0,0,0,star,triangle,2,0,2,0,0,0,0,9,,,,,,,,,,,,,,,,,,,,,,,,,,,,,,,,,,,,,,,,388.5677274789996,388.5677274789996,388.5677274789996,388.5677274789996,388.5677274789996,388.5677274789996,388.5677274789996,388.5677274789996,388.5677274789996,388.5677274789996,l,1.7438951680014725,1,424,2,390.33968072800053,391.8394890810014,391.8394890810014,392.33967849500186,,,,,,,,,,,,,,,,,,,,,,,,,,,,,,,,,,,,,,,,,,,,,,,,,,,,,,,,,,,,,,,,,,,,,,,27754,2022-09-20_13h57.45.396,vts_reward_expectancy_OFFLINE,2022.2.4,60.217879367892955,
0,0,1,0,0,0,0,1,hexagon,star,2,0,2,0,0,1,1,8,,,,,,,,,,,,,,,,,,,,,,,,,,,,,,,,,,,,,,,,392.33967849500186,392.33967849500186,392.33967849500186,392.33967849500186,392.33967849500186,392.33967849500186,392.33967849500186,392.33967849500186,392.33967849500186,392.33967849500186,a,1.0439057369985676,10,434,2,393.4119374660004,394.92667714100025,,,,,,,,,,,,,,,,,,,,,,,,,,,,,,,,,,,,,,,,,,,,,,,,,,,,,,,,,,,,,,,,,,,,,,,,,27754,2022-09-20_13h57.45.396,vts_reward_expectancy_OFFLINE,2022.2.4,60.217879367892955,
0,0,0,1,0,1,0,0,star ,circle,2,0,2,0,0,2,2,10,,,,,,,,,,,,,,,,,,,,,,,,,,,,,,,,,,,,,,,,395.4264036050008,395.4264036050008,395.4264036050008,395.4264036050008,395.4264036050008,395.4264036050008,395.4264036050008,395.4264036050008,395.4264036050008,395.4264036050008,a,2.4770904510005494,10,444,2,397.9300475380005,399.43010320900066,399.43010320900066,399.9301995979986,,,,,,,,,,,,,,,,,,,,,,,,,,,,,,,,,,,,,,,,,,,,,,,,,,,,,,,,,,,,,,,,,,,,,,,27754,2022-09-20_13h57.45.396,vts_reward_expectancy_OFFLINE,2022.2.4,60.217879367892955,
0,1,0,0,1,0,0,0,circle,triangle,2,0,2,0,0,3,3,3,,,,,,,,,,,,,,,,,,,,,,,,,,,,,,,,,,,,,,,,399.9301995979986,399.9301995979986,399.9301995979986,399.9301995979986,399.9301995979986,399.9301995979986,399.9301995979986,399.9301995979986,399.9301995979986,399.9301995979986,l,2.2777688579990354,10,454,2,402.2319590600018,403.733236529999,,,,,,,,,,,,,,,,,,,,,,,,,,,,,,,,,,,,,,,,,,,,,,,,,,,,,,,,,,,,,,,,,,,,,,,,,27754,2022-09-20_13h57.45.396,vts_reward_expectancy_OFFLINE,2022.2.4,60.217879367892955,
1,0,0,0,0,1,0,0,triangle,circle,2,0,2,0,0,4,4,0,,,,,,,,,,,,,,,,,,,,,,,,,,,,,,,,,,,,,,,,404.2334701680011,404.2334701680011,404.2334701680011,404.2334701680011,404.2334701680011,404.2334701680011,404.2334701680011,404.2334701680011,404.2334701680011,404.2334701680011,a,1.5016313269989041,10,464,2,405.7666241879997,407.2674773479994,407.2674773479994,,,,,,,,,,,,,,,,,,,,,,,,,,,,,,,,,,,,,,,,,,,,,,,,,,,,,,,,,,,,,,,,,,,,,,,,27754,2022-09-20_13h57.45.396,vts_reward_expectancy_OFFLINE,2022.2.4,60.217879367892955,
1,0,0,0,0,0,1,0,triangle,hexagon,2,0,2,0,0,5,5,1,,,,,,,,,,,,,,,,,,,,,,,,,,,,,,,,,,,,,,,,407.77001174199904,407.77001174199904,407.77001174199904,407.77001174199904,407.77001174199904,407.77001174199904,407.77001174199904,407.77001174199904,407.77001174199904,407.77001174199904,l,1.4932410969995544,10,474,2,409.2882999270005,410.7876065419987,410.7876065419987,411.28795727300167,,,,,,,,,,,,,,,,,,,,,,,,,,,,,,,,,,,,,,,,,,,,,,,,,,,,,,,,,,,,,,,,,,,,,,,27754,2022-09-20_13h57.45.396,vts_reward_expectancy_OFFLINE,2022.2.4,60.217879367892955,
0,1,0,0,0,0,0,1,circle,star,2,0,2,0,0,6,6,5,,,,,,,,,,,,,,,,,,,,,,,,,,,,,,,,,,,,,,,,411.28795727300167,411.28795727300167,411.28795727300167,411.28795727300167,411.28795727300167,411.28795727300167,411.28795727300167,411.28795727300167,411.28795727300167,411.28795727300167,l,3.207681149000564,10,484,2,414.5240763420006,416.0245526180006,416.0245526180006,416.5249106830015,,,,,,,,,,,,,,,,,,,,,,,,,,,,,,,,,,,,,,,,,,,,,,,,,,,,,,,,,,,,,,,,,,,,,,,27754,2022-09-20_13h57.45.396,vts_reward_expectancy_OFFLINE,2022.2.4,60.217879367892955,
0,0,1,0,0,1,0,0,hexagon,circle,2,0,2,0,0,7,7,7,,,,,,,,,,,,,,,,,,,,,,,,,,,,,,,,,,,,,,,,416.5249106830015,416.5249106830015,416.5249106830015,416.5249106830015,416.5249106830015,416.5249106830015,416.5249106830015,416.5249106830015,416.5249106830015,416.5249106830015,a,1.4261674029985443,10,494,2,417.9773284440016,419.4779933860009,419.4779933860009,419.9781032780011,,,,,,,,,,,,,,,,,,,,,,,,,,,,,,,,,,,,,,,,,,,,,,,,,,,,,,,,,,,,,,,,,,,,,,,27754,2022-09-20_13h57.45.396,vts_reward_expectancy_OFFLINE,2022.2.4,60.217879367892955,
0,0,1,0,1,0,0,0,hexagon,triangle,2,0,2,0,0,8,8,6,,,,,,,,,,,,,,,,,,,,,,,,,,,,,,,,,,,,,,,,419.9781032780011,419.9781032780011,419.9781032780011,419.9781032780011,419.9781032780011,419.9781032780011,419.9781032780011,419.9781032780011,419.9781032780011,419.9781032780011,a,1.5973958860013227,1,495,2,421.5979747679994,423.09777235,,,,,,,,,,,,,,,,,,,,,,,,,,,,,,,,,,,,,,,,,,,,,,,,,,,,,,,,,,,,,,,,,,,,,,,,,27754,2022-09-20_13h57.45.396,vts_reward_expectancy_OFFLINE,2022.2.4,60.217879367892955,
0,0,0,1,0,0,1,0,star,hexagon,2,0,2,0,0,9,9,11,,,,,,,,,,,,,,,,,,,,,,,,,,,,,,,,,,,,,,,,423.59772154700113,423.59772154700113,423.59772154700113,423.59772154700113,423.59772154700113,423.59772154700113,423.59772154700113,423.59772154700113,423.59772154700113,423.59772154700113,l,1.9223663859993394,10,505,2,425.5632715620013,427.0657571090014,,,,,,,,,,,,,,,,,,,,,,,,,,,,,,,,,,,,,,,,,,,,,,,,,,,,,,,,,,,,,,,,,,,,,,,,,27754,2022-09-20_13h57.45.396,vts_reward_expectancy_OFFLINE,2022.2.4,60.217879367892955,
1,0,0,0,0,0,0,1,triangle,star,2,0,2,0,0,10,10,2,,,,,,,,,,,,,,,,,,,,,,,,,,,,,,,,,,,,,,,,427.5512143429987,427.5512143429987,427.5512143429987,427.5512143429987,427.5512143429987,427.5512143429987,427.5512143429987,427.5512143429987,427.5512143429987,427.5512143429987,a,1.4968096609991335,1,506,2,429.07047562799926,430.58541965599943,,,,,,,,,,,,,,,,,,,,,,,,,,,,,,,,,,,,,,,,,,,,,,,,,,,,,,,,,,,,,,,,,,,,,,,,,27754,2022-09-20_13h57.45.396,vts_reward_expectancy_OFFLINE,2022.2.4,60.217879367892955,
0,1,0,0,0,0,1,0,circle,hexagon,2,0,2,0,0,11,11,4,,,,,,,,,,,,,,,,,,,,,,,,,,,,,,,,,,,,,,,,431.08577424399846,431.08577424399846,431.08577424399846,431.08577424399846,431.08577424399846,431.08577424399846,431.08577424399846,431.08577424399846,431.08577424399846,431.08577424399846,l,7.7136586279993935,1,507,2,438.8260198930002,440.32529679800064,440.32529679800064,440.8257285690015,,,,,,,,,,,,,,,,,,,,,,,,,,,,,,,,,,,,,,,,,,,,,,,,,,,,,,,,,,,,,,,,,,,,,,,27754,2022-09-20_13h57.45.396,vts_reward_expectancy_OFFLINE,2022.2.4,60.217879367892955,
1,0,0,0,0,0,1,0,triangle,hexagon,2,0,2,0,1,0,12,1,,,,,,,,,,,,,,,,,,,,,,,,,,,,,,,,,,,,,,,,440.8257285690015,440.8257285690015,440.8257285690015,440.8257285690015,440.8257285690015,440.8257285690015,440.8257285690015,440.8257285690015,440.8257285690015,440.8257285690015,l,4.046473099999275,10,517,2,444.8986951459992,446.4134509700016,,,,,,,,,,,,,,,,,,,,,,,,,,,,,,,,,,,,,,,,,,,,,,,,,,,,,,,,,,,,,,,,,,,,,,,,,27754,2022-09-20_13h57.45.396,vts_reward_expectancy_OFFLINE,2022.2.4,60.217879367892955,
0,0,1,0,0,1,0,0,hexagon,circle,2,0,2,0,1,1,13,7,,,,,,,,,,,,,,,,,,,,,,,,,,,,,,,,,,,,,,,,446.9136045890009,446.9136045890009,446.9136045890009,446.9136045890009,446.9136045890009,446.9136045890009,446.9136045890009,446.9136045890009,446.9136045890009,446.9136045890009,a,0.646015800000896,10,527,2,447.5822166830003,449.0824375650009,449.0824375650009,449.5826002770009,,,,,,,,,,,,,,,,,,,,,,,,,,,,,,,,,,,,,,,,,,,,,,,,,,,,,,,,,,,,,,,,,,,,,,,27754,2022-09-20_13h57.45.396,vts_reward_expectancy_OFFLINE,2022.2.4,60.217879367892955,
0,1,0,0,0,0,0,1,circle,star,2,0,2,0,1,2,14,5,,,,,,,,,,,,,,,,,,,,,,,,,,,,,,,,,,,,,,,,449.5826002770009,449.5826002770009,449.5826002770009,449.5826002770009,449.5826002770009,449.5826002770009,449.5826002770009,449.5826002770009,449.5826002770009,449.5826002770009,a,1.7846548359993903,1,528,2,451.3859334959998,452.88540410800124,,,,,,,,,,,,,,,,,,,,,,,,,,,,,,,,,,,,,,,,,,,,,,,,,,,,,,,,,,,,,,,,,,,,,,,,,27754,2022-09-20_13h57.45.396,vts_reward_expectancy_OFFLINE,2022.2.4,60.217879367892955,
0,0,0,1,0,0,1,0,star,hexagon,2,0,2,0,1,3,15,11,,,,,,,,,,,,,,,,,,,,,,,,,,,,,,,,,,,,,,,,453.38547060600104,453.38547060600104,453.38547060600104,453.38547060600104,453.38547060600104,453.38547060600104,453.38547060600104,453.38547060600104,453.38547060600104,453.38547060600104,l,1.2776909880012681,10,538,2,454.6891078849985,456.2039690780002,,,,,,,,,,,,,,,,,,,,,,,,,,,,,,,,,,,,,,,,,,,,,,,,,,,,,,,,,,,,,,,,,,,,,,,,,27754,2022-09-20_13h57.45.396,vts_reward_expectancy_OFFLINE,2022.2.4,60.217879367892955,
0,0,1,0,1,0,0,0,hexagon,triangle,2,0,2,0,1,4,16,6,,,,,,,,,,,,,,,,,,,,,,,,,,,,,,,,,,,,,,,,456.70394327300164,456.70394327300164,456.70394327300164,456.70394327300164,456.70394327300164,456.70394327300164,456.70394327300164,456.70394327300164,456.70394327300164,456.70394327300164,a,1.0950569849992462,10,548,2,457.8241599520006,459.3233158690018,459.3233158690018,459.8237307579984,,,,,,,,,,,,,,,,,,,,,,,,,,,,,,,,,,,,,,,,,,,,,,,,,,,,,,,,,,,,,,,,,,,,,,,27754,2022-09-20_13h57.45.396,vts_reward_expectancy_OFFLINE,2022.2.4,60.217879367892955,
0,0,0,1,1,0,0,0,star,triangle,2,0,2,0,1,5,17,9,,,,,,,,,,,,,,,,,,,,,,,,,,,,,,,,,,,,,,,,459.8237307579984,459.8237307579984,459.8237307579984,459.8237307579984,459.8237307579984,459.8237307579984,459.8237307579984,459.8237307579984,459.8237307579984,459.8237307579984,l,1.5833613149989105,10,558,2,461.4251719140011,462.92679889600186,,,,,,,,,,,,,,,,,,,,,,,,,,,,,,,,,,,,,,,,,,,,,,,,,,,,,,,,,,,,,,,,,,,,,,,,,27754,2022-09-20_13h57.45.396,vts_reward_expectancy_OFFLINE,2022.2.4,60.217879367892955,
1,0,0,0,0,1,0,0,triangle,circle,2,0,2,0,1,6,18,0,,,,,,,,,,,,,,,,,,,,,,,,,,,,,,,,,,,,,,,,463.42690850299914,463.42690850299914,463.42690850299914,463.42690850299914,463.42690850299914,463.42690850299914,463.42690850299914,463.42690850299914,463.42690850299914,463.42690850299914,l,2.676986042999488,10,568,2,466.12850228800016,467.62996506000127,,,,,,,,,,,,,,,,,,,,,,,,,,,,,,,,,,,,,,,,,,,,,,,,,,,,,,,,,,,,,,,,,,,,,,,,,27754,2022-09-20_13h57.45.396,vts_reward_expectancy_OFFLINE,2022.2.4,60.217879367892955,
1,0,0,0,0,0,0,1,triangle,star,2,0,2,0,1,7,19,2,,,,,,,,,,,,,,,,,,,,,,,,,,,,,,,,,,,,,,,,468.1301974909984,468.1301974909984,468.1301974909984,468.1301974909984,468.1301974909984,468.1301974909984,468.1301974909984,468.1301974909984,468.1301974909984,468.1301974909984,a,2.5333214109996334,1,569,2,470.6835009739989,472.18176423299883,,,,,,,,,,,,,,,,,,,,,,,,,,,,,,,,,,,,,,,,,,,,,,,,,,,,,,,,,,,,,,,,,,,,,,,,,27754,2022-09-20_13h57.45.396,vts_reward_expectancy_OFFLINE,2022.2.4,60.217879367892955,
0,0,1,0,0,0,0,1,hexagon,star,2,0,2,0,1,8,20,8,,,,,,,,,,,,,,,,,,,,,,,,,,,,,,,,,,,,,,,,472.68408750399976,472.68408750399976,472.68408750399976,472.68408750399976,472.68408750399976,472.68408750399976,472.68408750399976,472.68408750399976,472.68408750399976,472.68408750399976,a,1.3001359299996693,1,570,2,474.00121631,475.50114096700054,475.50114096700054,476.001106259002,,,,,,,,,,,,,,,,,,,,,,,,,,,,,,,,,,,,,,,,,,,,,,,,,,,,,,,,,,,,,,,,,,,,,,,27754,2022-09-20_13h57.45.396,vts_reward_expectancy_OFFLINE,2022.2.4,60.217879367892955,
0,0,0,1,0,1,0,0,star ,circle,2,0,2,0,1,9,21,10,,,,,,,,,,,,,,,,,,,,,,,,,,,,,,,,,,,,,,,,476.001106259002,476.001106259002,476.001106259002,476.001106259002,476.001106259002,476.001106259002,476.001106259002,476.001106259002,476.001106259002,476.001106259002,l,2.854072416001145,1,571,2,478.88810309700057,480.38845384600063,480.38845384600063,480.88863763500194,,,,,,,,,,,,,,,,,,,,,,,,,,,,,,,,,,,,,,,,,,,,,,,,,,,,,,,,,,,,,,,,,,,,,,,27754,2022-09-20_13h57.45.396,vts_reward_expectancy_OFFLINE,2022.2.4,60.217879367892955,
0,1,0,0,0,0,1,0,circle,hexagon,2,0,2,0,1,10,22,4,,,,,,,,,,,,,,,,,,,,,,,,,,,,,,,,,,,,,,,,480.88863763500194,480.88863763500194,480.88863763500194,480.88863763500194,480.88863763500194,480.88863763500194,480.88863763500194,480.88863763500194,480.88863763500194,480.88863763500194,l,1.2145542959988234,1,572,2,482.122669624001,483.62478678299885,,,,,,,,,,,,,,,,,,,,,,,,,,,,,,,,,,,,,,,,,,,,,,,,,,,,,,,,,,,,,,,,,,,,,,,,,27754,2022-09-20_13h57.45.396,vts_reward_expectancy_OFFLINE,2022.2.4,60.217879367892955,
0,1,0,0,1,0,0,0,circle,triangle,2,0,2,0,1,11,23,3,,,,,,,,,,,,,,,,,,,,,,,,,,,,,,,,,,,,,,,,484.12517351399947,484.12517351399947,484.12517351399947,484.12517351399947,484.12517351399947,484.12517351399947,484.12517351399947,484.12517351399947,484.12517351399947,484.12517351399947,a,2.8263269039998704,1,573,2,486.9762145530003,488.47823814799995,,,,,,,,,,,,,,,,,,,,,,,,,,,,,,,,,,,,,,,,,,,,,,,,,,,,,,,,,,,,,,,,,,,,,,,,,27754,2022-09-20_13h57.45.396,vts_reward_expectancy_OFFLINE,2022.2.4,60.217879367892955,
0,0,0,1,1,0,0,0,star,triangle,2,0,2,0,2,0,24,9,,,,,,,,,,,,,,,,,,,,,,,,,,,,,,,,,,,,,,,,488.97850807600116,488.97850807600116,488.97850807600116,488.97850807600116,488.97850807600116,488.97850807600116,488.97850807600116,488.97850807600116,488.97850807600116,488.97850807600116,l,1.253032438999071,10,583,2,490.26503953000065,491.77963664900017,,,,,,,,,,,,,,,,,,,,,,,,,,,,,,,,,,,,,,,,,,,,,,,,,,,,,,,,,,,,,,,,,,,,,,,,,27754,2022-09-20_13h57.45.396,vts_reward_expectancy_OFFLINE,2022.2.4,60.217879367892955,
1,0,0,0,0,1,0,0,triangle,circle,2,0,2,0,2,1,25,0,,,,,,,,,,,,,,,,,,,,,,,,,,,,,,,,,,,,,,,,492.2796898359993,492.2796898359993,492.2796898359993,492.2796898359993,492.2796898359993,492.2796898359993,492.2796898359993,492.2796898359993,492.2796898359993,492.2796898359993,a,2.800619748999452,1,584,2,495.1140076769989,496.6165741110017,,,,,,,,,,,,,,,,,,,,,,,,,,,,,,,,,,,,,,,,,,,,,,,,,,,,,,,,,,,,,,,,,,,,,,,,,27754,2022-09-20_13h57.45.396,vts_reward_expectancy_OFFLINE,2022.2.4,60.217879367892955,
0,1,0,0,0,0,0,1,circle,star,2,0,2,0,2,2,26,5,,,,,,,,,,,,,,,,,,,,,,,,,,,,,,,,,,,,,,,,497.1167229780003,497.1167229780003,497.1167229780003,497.1167229780003,497.1167229780003,497.1167229780003,497.1167229780003,497.1167229780003,497.1167229780003,497.1167229780003,l,2.211319686000934,1,585,2,499.353460888,500.85310689900143,500.85310689900143,,,,,,,,,,,,,,,,,,,,,,,,,,,,,,,,,,,,,,,,,,,,,,,,,,,,,,,,,,,,,,,,,,,,,,,,27754,2022-09-20_13h57.45.396,vts_reward_expectancy_OFFLINE,2022.2.4,60.217879367892955,
0,0,1,0,0,0,0,1,hexagon,star,2,0,2,0,2,3,27,8,,,,,,,,,,,,,,,,,,,,,,,,,,,,,,,,,,,,,,,,501.35318562700195,501.35318562700195,501.35318562700195,501.35318562700195,501.35318562700195,501.35318562700195,501.35318562700195,501.35318562700195,501.35318562700195,501.35318562700195,a,0.8625219330024265,10,595,2,502.23908335099986,503.7394864939997,,,,,,,,,,,,,,,,,,,,,,,,,,,,,,,,,,,,,,,,,,,,,,,,,,,,,,,,,,,,,,,,,,,,,,,,,27754,2022-09-20_13h57.45.396,vts_reward_expectancy_OFFLINE,2022.2.4,60.217879367892955,
0,1,0,0,1,0,0,0,circle,triangle,2,0,2,0,2,4,28,3,,,,,,,,,,,,,,,,,,,,,,,,,,,,,,,,,,,,,,,,504.2397379670001,504.2397379670001,504.2397379670001,504.2397379670001,504.2397379670001,504.2397379670001,504.2397379670001,504.2397379670001,504.2397379670001,504.2397379670001,a,2.383934579000197,1,596,2,506.6574503459997,508.15937043899976,,,,,,,,,,,,,,,,,,,,,,,,,,,,,,,,,,,,,,,,,,,,,,,,,,,,,,,,,,,,,,,,,,,,,,,,,27754,2022-09-20_13h57.45.396,vts_reward_expectancy_OFFLINE,2022.2.4,60.217879367892955,
0,0,0,1,0,0,1,0,star,hexagon,2,0,2,0,2,5,29,11,,,,,,,,,,,,,,,,,,,,,,,,,,,,,,,,,,,,,,,,508.6596256090015,508.6596256090015,508.6596256090015,508.6596256090015,508.6596256090015,508.6596256090015,508.6596256090015,508.6596256090015,508.6596256090015,508.6596256090015,l,1.0605175379969296,10,606,2,509.7454976779991,511.2606567900002,,,,,,,,,,,,,,,,,,,,,,,,,,,,,,,,,,,,,,,,,,,,,,,,,,,,,,,,,,,,,,,,,,,,,,,,,27754,2022-09-20_13h57.45.396,vts_reward_expectancy_OFFLINE,2022.2.4,60.217879367892955,
0,0,1,0,0,1,0,0,hexagon,circle,2,0,2,0,2,6,30,7,,,,,,,,,,,,,,,,,,,,,,,,,,,,,,,,,,,,,,,,511.7495068470016,511.7495068470016,511.7495068470016,511.7495068470016,511.7495068470016,511.7495068470016,511.7495068470016,511.7495068470016,511.7495068470016,511.7495068470016,a,0.905890770998667,10,616,2,512.6802041100018,514.1792977900004,514.1792977900004,514.6796803910001,,,,,,,,,,,,,,,,,,,,,,,,,,,,,,,,,,,,,,,,,,,,,,,,,,,,,,,,,,,,,,,,,,,,,,,27754,2022-09-20_13h57.45.396,vts_reward_expectancy_OFFLINE,2022.2.4,60.217879367892955,
0,1,0,0,0,0,1,0,circle,hexagon,2,0,2,0,2,7,31,4,,,,,,,,,,,,,,,,,,,,,,,,,,,,,,,,,,,,,,,,514.6796803910001,514.6796803910001,514.6796803910001,514.6796803910001,514.6796803910001,514.6796803910001,514.6796803910001,514.6796803910001,514.6796803910001,514.6796803910001,l,1.1116752859998087,10,626,2,515.8150297210013,517.3146881149987,517.3146881149987,,,,,,,,,,,,,,,,,,,,,,,,,,,,,,,,,,,,,,,,,,,,,,,,,,,,,,,,,,,,,,,,,,,,,,,,27754,2022-09-20_13h57.45.396,vts_reward_expectancy_OFFLINE,2022.2.4,60.217879367892955,
1,0,0,0,0,0,0,1,triangle,star,2,0,2,0,2,8,32,2,,,,,,,,,,,,,,,,,,,,,,,,,,,,,,,,,,,,,,,,517.8165314280013,517.8165314280013,517.8165314280013,517.8165314280013,517.8165314280013,517.8165314280013,517.8165314280013,517.8165314280013,517.8165314280013,517.8165314280013,l,1.7598127080018457,10,636,2,519.6011483789989,521.100869766,521.100869766,521.6012160360006,,,,,,,,,,,,,,,,,,,,,,,,,,,,,,,,,,,,,,,,,,,,,,,,,,,,,,,,,,,,,,,,,,,,,,,27754,2022-09-20_13h57.45.396,vts_reward_expectancy_OFFLINE,2022.2.4,60.217879367892955,
1,0,0,0,0,0,1,0,triangle,hexagon,2,0,2,0,2,9,33,1,,,,,,,,,,,,,,,,,,,,,,,,,,,,,,,,,,,,,,,,521.6012160360006,521.6012160360006,521.6012160360006,521.6012160360006,521.6012160360006,521.6012160360006,521.6012160360006,521.6012160360006,521.6012160360006,521.6012160360006,l,1.3344196489997557,10,646,2,522.9535737199985,524.4543211810014,,,,,,,,,,,,,,,,,,,,,,,,,,,,,,,,,,,,,,,,,,,,,,,,,,,,,,,,,,,,,,,,,,,,,,,,,27754,2022-09-20_13h57.45.396,vts_reward_expectancy_OFFLINE,2022.2.4,60.217879367892955,
0,0,0,1,0,1,0,0,star ,circle,2,0,2,0,2,10,34,10,,,,,,,,,,,,,,,,,,,,,,,,,,,,,,,,,,,,,,,,524.9544419560007,524.9544419560007,524.9544419560007,524.9544419560007,524.9544419560007,524.9544419560007,524.9544419560007,524.9544419560007,524.9544419560007,524.9544419560007,a,0.9407725149976613,10,656,2,525.9219949120015,527.4219954319997,,,,,,,,,,,,,,,,,,,,,,,,,,,,,,,,,,,,,,,,,,,,,,,,,,,,,,,,,,,,,,,,,,,,,,,,,27754,2022-09-20_13h57.45.396,vts_reward_expectancy_OFFLINE,2022.2.4,60.217879367892955,
0,0,1,0,1,0,0,0,hexagon,triangle,2,0,2,0,2,11,35,6,,,,,,,,,,,,,,,,,,,,,,,,,,,,,,,,,,,,,,,,527.9239611609992,527.9239611609992,527.9239611609992,527.9239611609992,527.9239611609992,527.9239611609992,527.9239611609992,527.9239611609992,527.9239611609992,527.9239611609992,a,0.9637972860000446,10,666,2,528.9077436849984,530.4081025359992,530.4081025359992,530.9130227569985,,,,,,,,,,,,,,,,,,,,,,,,,,,,,,,,,,,,,,,,,,,,,,,,,,,,,,,,,,,,,,,,,,,,,,,27754,2022-09-20_13h57.45.396,vts_reward_expectancy_OFFLINE,2022.2.4,60.217879367892955,
,,,,,,,,,,,,,,,,,,0,0,0,0,0,0,0,0,,,,,,,,,,,,,,,,,,,,,,,,,,,,,,,,,,,,,,,,,,,,,,,,577.108201649,,,160,U,triangle,0.0007523229978687596,571.1112072460019,572.606752134001,572.606752134001,572.606752134001,0,0,None,0,575.6077930790016,,,,,,,,,,,,,,,,,,,,,,,,,,,,,,,,,,,,,,,,,,,,,,,,,,,,,,,,,,27754,2022-09-20_13h57.45.396,vts_reward_expectancy_OFFLINE,2022.2.4,60.217879367892955,
,,,,,,,,,,,,,,,,,,0,0,0,0,1,0,1,0,,,,,,,,,,,,,,,,,,,,,,,,,,,,,,,,,,,,,,,,,,,,,,,,584.1145488850016,,,132,F,hexagon,0.006396517997927731,578.1055779820017,579.5941895649994,579.5941895649994,579.5941895649994,0,1,None,0,582.6136682479992,582.5972153580005,582.5972153580005,582.5972153580005,,,,,,,,,,,,,,,,,,,,,,,,,,,,,,,,,,,,,,,,,,,,,,,,,,,,,,,27754,2022-09-20_13h57.45.396,vts_reward_expectancy_OFFLINE,2022.2.4,60.217879367892955,
,,,,,,,,,,,,,,,,,,0,0,0,0,2,0,2,0,,,,,,,,,,,,,,,,,,,,,,,,,,,,,,,,,,,,,,,,,,,,,,,,591.1187768480013,,,139,H,circle,0.010943229997792514,585.1104762389987,586.5986578920019,586.5986578920019,586.5986578920019,0,1,None,0,589.6184113700001,589.6015051059985,589.6015051059985,589.6015051059985,,,,,,,,,,,,,,,,,,,,,,,,,,,,,,,,,,,,,,,,,,,,,,,,,,,,,,,27754,2022-09-20_13h57.45.396,vts_reward_expectancy_OFFLINE,2022.2.4,60.217879367892955,
,,,,,,,,,,,,,,,,,,0,0,0,0,3,0,3,0,,,,,,,,,,,,,,,,,,,,,,,,,,,,,,,,,,,,,,,,,,,,,,,,595.7549007400012,,,181,B,star,0.015271313000994269,592.115124103002,593.5873745419995,593.5873745419995,593.5873745419995,1,1,f,0,594.2578666320005,,,,0.6439391749991046,,,,,,,,,,,,,,,,,,,,,,,,,,,,,,,,,,,,,,,,,,,,,,,,,,,,,,27754,2022-09-20_13h57.45.396,vts_reward_expectancy_OFFLINE,2022.2.4,60.217879367892955,
,,,,,,,,,,,,,,,,,,0,0,0,0,4,0,4,0,,,,,,,,,,,,,,,,,,,,,,,,,,,,,,,,,,,,,,,,,,,,,,,,600.5591323619992,,601.0592415479987,125,Y,circle,0.000855939000757644,596.7618907680007,598.2408631319995,598.2408631319995,598.2408631319995,1,0,d,0,599.0588834049995,,,,0.7909047869979986,600.5591323619992,,,,,,,,,,,,,,,,,,,,,,,,,,,,,,,,,,,,,,,,,,,,,,,,,,,,,27754,2022-09-20_13h57.45.396,vts_reward_expectancy_OFFLINE,2022.2.4,60.217879367892955,
,,,,,,,,,,,,,,,,,,0,0,0,0,5,0,5,0,,,,,,,,,,,,,,,,,,,,,,,,,,,,,,,,,,,,,,,,,,,,,,,,605.3454297809985,,605.8454426780008,174,W,star,0.0004926689980493393,601.565963074001,603.0445088460001,603.0445088460001,603.0445088460001,1,0,f,0,603.8463358650006,,,,0.7711343209994084,605.3454297809985,,,,,,,,,,,,,,,,,,,,,,,,,,,,,,,,,,,,,,,,,,,,,,,,,,,,,27754,2022-09-20_13h57.45.396,vts_reward_expectancy_OFFLINE,2022.2.4,60.217879367892955,
,,,,,,,,,,,,,,,,,,0,0,0,0,6,0,6,0,,,,,,,,,,,,,,,,,,,,,,,,,,,,,,,,,,,,,,,,,,,,,,,,610.0163269859986,,,167,D,hexagon,0.0004894089979643468,606.3528984889999,607.8320719090007,607.8320719090007,607.8320719090007,1,0,f,0,608.5159283440007,,,,0.6552575089990569,,,,,,,,,,,,,,,,,,,,,,,,,,,,,,,,,,,,,,,,,,,,,,,,,,,,,,27754,2022-09-20_13h57.45.396,vts_reward_expectancy_OFFLINE,2022.2.4,60.217879367892955,
,,,,,,,,,,,,,,,,,,0,0,0,0,7,0,7,0,,,,,,,,,,,,,,,,,,,,,,,,,,,,,,,,,,,,,,,,,,,,,,,,615.2696818580007,,615.7699839900015,146,S,triangle,0.0004826380027225241,611.0222837680012,612.5002372210001,612.5002372210001,612.5002372210001,1,0,d,0,613.7701950129995,,,,1.251800344001822,615.2696818580007,,,,,,,,,,,,,,,,,,,,,,,,,,,,,,,,,,,,,,,,,,,,,,,,,,,,,27754,2022-09-20_13h57.45.396,vts_reward_expectancy_OFFLINE,2022.2.4,60.217879367892955,
,,,,,,,,,,,,,,,,,,0,0,0,0,8,0,8,0,,,,,,,,,,,,,,,,,,,,,,,,,,,,,,,,,,,,,,,,,,,,,,,,620.5562464329996,,621.0565708920003,160,U,circle,0.00018452400036039762,616.2760837749993,617.7553687610016,617.7553687610016,617.7553687610016,1,0,f,0,619.0560213659992,,,,1.268400365999696,620.5562464329996,,,,,,,,,,,,,,,,,,,,,,,,,,,,,,,,,,,,,,,,,,,,,,,,,,,,,27754,2022-09-20_13h57.45.396,vts_reward_expectancy_OFFLINE,2022.2.4,60.217879367892955,
,,,,,,,,,,,,,,,,,,0,0,0,0,9,0,9,0,,,,,,,,,,,,,,,,,,,,,,,,,,,,,,,,,,,,,,,,,,,,,,,,625.2105529260007,,625.7206219479995,132,F,hexagon,-0.0008646960013720673,621.5634816870006,623.0424045209984,623.0424045209984,623.0424045209984,1,0,d,0,623.7102940580007,,,,0.6451862379981321,625.2105529260007,,,,,,,,,,,,,,,,,,,,,,,,,,,,,,,,,,,,,,,,,,,,,,,,,,,,,27754,2022-09-20_13h57.45.396,vts_reward_expectancy_OFFLINE,2022.2.4,60.217879367892955,
,,,,,,,,,,,,,,,,,,1,0,1,0,0,0,0,0,,,,,,,,,,,,,,,,,,,,,,,,,,,,,,,,,,,,,,,,,,,,,,,,651.7785967130003,,,181,Y,circle,0.014292715000919998,648.1210214160019,649.5948065949997,649.5948065949997,649.5948065949997,1,0,f,1,650.2638493160011,,,,0.6371182419970864,,,,,,,,,,,,,,,,,,,,,,,,,,,,,,,,,,,,,,,,,,,,,,,,,,,,,,27754,2022-09-20_13h57.45.396,vts_reward_expectancy_OFFLINE,2022.2.4,60.217879367892955,
,,,,,,,,,,,,,,,,,,1,0,1,0,1,0,1,0,,,,,,,,,,,,,,,,,,,,,,,,,,,,,,,,,,,,,,,,,,,,,,,,656.5160871760017,,657.0162331530009,139,D,triangle,0.016523150003195042,652.7756332850004,654.2484519559985,654.2484519559985,654.2484519559985,1,0,d,1,655.0169622630019,,,,0.7433675679967564,656.5160871760017,,,,,,,,,,,,,,,,,,,,,,,,,,,,,,,,,,,,,,,,,,,,,,,,,,,,,27754,2022-09-20_13h57.45.396,vts_reward_expectancy_OFFLINE,2022.2.4,60.217879367892955,
,,,,,,,,,,,,,,,,,,1,0,1,0,2,0,2,0,,,,,,,,,,,,,,,,,,,,,,,,,,,,,,,,,,,,,,,,,,,,,,,,661.2529999200015,,661.752942182,132,H,star,0.0003097100016020704,657.5229233479986,659.002200455001,659.002200455001,659.002200455001,1,0,d,1,659.7530279989987,,,,0.7255927469996095,661.2529999200015,,,,,,,,,,,,,,,,,,,,,,,,,,,,,,,,,,,,,,,,,,,,,,,,,,,,,27754,2022-09-20_13h57.45.396,vts_reward_expectancy_OFFLINE,2022.2.4,60.217879367892955,
,,,,,,,,,,,,,,,,,,1,0,1,0,3,0,3,0,,,,,,,,,,,,,,,,,,,,,,,,,,,,,,,,,,,,,,,,,,,,,,,,666.0230606820005,,,125,B,hexagon,0.0005489340001076926,662.2599000340015,663.7383920790016,663.7383920790016,663.7383920790016,1,0,d,1,664.5070392570015,,,,0.7490608690022782,,,,,,,,,,,,,,,,,,,,,,,,,,,,,,,,,,,,,,,,,,,,,,,,,,,,,,27754,2022-09-20_13h57.45.396,vts_reward_expectancy_OFFLINE,2022.2.4,60.217879367892955,
,,,,,,,,,,,,,,,,,,1,0,1,0,4,0,4,0,,,,,,,,,,,,,,,,,,,,,,,,,,,,,,,,,,,,,,,,,,,,,,,,670.659972149002,,,160,F,circle,0.017476329998316942,667.0194576559988,668.4918953359993,668.4918953359993,668.4918953359993,1,0,f,1,669.1442140639992,,,,0.6280581450009777,,,,,,,,,,,,,,,,,,,,,,,,,,,,,,,,,,,,,,,,,,,,,,,,,,,,,,27754,2022-09-20_13h57.45.396,vts_reward_expectancy_OFFLINE,2022.2.4,60.217879367892955,
,,,,,,,,,,,,,,,,,,1,0,1,0,5,0,5,0,,,,,,,,,,,,,,,,,,,,,,,,,,,,,,,,,,,,,,,,,,,,,,,,675.6464496459994,,,146,U,star,0.015763130999403074,671.6555629850009,673.1294854250009,673.1294854250009,673.1294854250009,1,0,d,1,674.1312857750017,,,,0.9822684569990088,,,,,,,,,,,,,,,,,,,,,,,,,,,,,,,,,,,,,,,,,,,,,,,,,,,,,,27754,2022-09-20_13h57.45.396,vts_reward_expectancy_OFFLINE,2022.2.4,60.217879367892955,
,,,,,,,,,,,,,,,,,,1,0,1,0,6,0,6,0,,,,,,,,,,,,,,,,,,,,,,,,,,,,,,,,,,,,,,,,,,,,,,,,680.7671966980015,,681.267777041001,167,W,triangle,0.016996693000692176,676.6425682869994,678.1162579859993,678.1162579859993,678.1162579859993,1,0,f,1,679.2674405149992,,,,1.1233932600007392,680.7671966980015,,,,,,,,,,,,,,,,,,,,,,,,,,,,,,,,,,,,,,,,,,,,,,,,,,,,,27754,2022-09-20_13h57.45.396,vts_reward_expectancy_OFFLINE,2022.2.4,60.217879367892955,
,,,,,,,,,,,,,,,,,,1,0,1,0,7,0,7,0,,,,,,,,,,,,,,,,,,,,,,,,,,,,,,,,,,,,,,,,,,,,,,,,685.6034861359985,,,174,S,hexagon,0.00030426700323005207,681.7734557180011,683.2529978530001,683.2529978530001,683.2529978530001,1,0,f,1,684.0882692000014,,,,0.8030080649987212,,,,,,,,,,,,,,,,,,,,,,,,,,,,,,,,,,,,,,,,,,,,,,,,,,,,,,27754,2022-09-20_13h57.45.396,vts_reward_expectancy_OFFLINE,2022.2.4,60.217879367892955,
,,,,,,,,,,,,,,,,,,1,0,1,0,8,0,8,0,,,,,,,,,,,,,,,,,,,,,,,,,,,,,,,,,,,,,,,,,,,,,,,,690.2245914369996,,690.7242155169988,181,Y,triangle,0.0005692209997505415,686.5935875510004,688.0734808300003,688.0734808300003,688.0734808300003,1,0,f,1,688.7246842320019,,,,0.6220742839977902,690.2245914369996,,,,,,,,,,,,,,,,,,,,,,,,,,,,,,,,,,,,,,,,,,,,,,,,,,,,,27754,2022-09-20_13h57.45.396,vts_reward_expectancy_OFFLINE,2022.2.4,60.217879367892955,
,,,,,,,,,,,,,,,,,,1,0,1,0,9,0,9,0,,,,,,,,,,,,,,,,,,,,,,,,,,,,,,,,,,,,,,,,,,,,,,,,695.1948645400007,,,139,D,star,0.00048746500033303164,691.2305685479987,692.710075990999,692.710075990999,692.710075990999,1,0,d,1,693.6783329050013,,,,0.9452206519999891,,,,,,,,,,,,,,,,,,,,,,,,,,,,,,,,,,,,,,,,,,,,,,,,,,,,,,27754,2022-09-20_13h57.45.396,vts_reward_expectancy_OFFLINE,2022.2.4,60.217879367892955,
,,,,,,,,,,,,,,,,,,,,,,,,,,0,0,0,0,0,0,0,0,,,,,,,,,,,,,,,,,,,,,,,,,,,,,,,,,,,,,,,,727.533351738999,,,167,S,triangle,0.0012895260006189346,,,,,1,0,,2,726.0347891310012,,,,,727.533351738999,723.788321283002,725.2665300160006,725.2665300160006,725.2665300160006,k,0.749385811999673,,,,,,,,,,,,,,,,,,,,,,,,,,,,,,,,,,,,,,,,,,,,,,,27754,2022-09-20_13h57.45.396,vts_reward_expectancy_OFFLINE,2022.2.4,60.217879367892955,
,,,,,,,,,,,,,,,,,,,,,,,,,,0,0,0,0,1,0,1,0,,,,,,,,,,,,,,,,,,,,,,,,,,,,,,,,,,,,,,,,732.2370071580008,,,160,D,hexagon,0.0015661180004826747,,,,,1,0,,2,730.737811670002,,,,,732.2370071580008,728.5414302729987,730.0199594100013,730.0199594100013,730.0199594100013,j,0.6991263549971336,,,,,,,,,,,,,,,,,,,,,,,,,,,,,,,,,,,,,,,,,,,,,,,27754,2022-09-20_13h57.45.396,vts_reward_expectancy_OFFLINE,2022.2.4,60.217879367892955,
,,,,,,,,,,,,,,,,,,,,,,,,,,0,0,0,0,2,0,2,0,,,,,,,,,,,,,,,,,,,,,,,,,,,,,,,,,,,,,,,,736.9406609799989,,,125,F,star,0.001977945998078212,,,,,1,0,,2,735.4258371020005,,,,,,733.2452150540012,734.723668253002,734.723668253002,734.723668253002,j,0.6682164379999449,,,,,,,,,,,,,,,,,,,,,,,,,,,,,,,,,,,,,,,,,,,,,,,27754,2022-09-20_13h57.45.396,vts_reward_expectancy_OFFLINE,2022.2.4,60.217879367892955,
,,,,,,,,,,,,,,,,,,,,,,,,,,0,0,0,0,3,0,3,0,,,,,,,,,,,,,,,,,,,,,,,,,,,,,,,,,,,,,,,,741.6939885749998,,742.1941564010012,132,W,circle,0.016533480000362033,,,,,1,0,,2,740.1953671779993,,,,,741.6939885749998,737.9366231979984,739.4104498150009,739.4104498150009,739.4104498150009,k,0.7652245329991274,,,,,,,,,,,,,,,,,,,,,,,,,,,,,,,,,,,,,,,,,,,,,,,27754,2022-09-20_13h57.45.396,vts_reward_expectancy_OFFLINE,2022.2.4,60.217879367892955,
,,,,,,,,,,,,,,,,,,,,,,,,,,0,0,0,0,4,0,4,0,,,,,,,,,,,,,,,,,,,,,,,,,,,,,,,,,,,,,,,,746.3473199370019,,,139,B,triangle,0.00030515799880959094,,,,,1,0,,2,744.832700040999,,,,,,742.7016743550012,744.1805994200004,744.1805994200004,744.1805994200004,j,0.618977158999769,,,,,,,,,,,,,,,,,,,,,,,,,,,,,,,,,,,,,,,,,,,,,,,27754,2022-09-20_13h57.45.396,vts_reward_expectancy_OFFLINE,2022.2.4,60.217879367892955,
,,,,,,,,,,,,,,,,,,,,,,,,,,0,0,0,0,5,0,5,0,,,,,,,,,,,,,,,,,,,,,,,,,,,,,,,,,,,,,,,,751.201064113,,,174,Y,circle,0.01705292900078348,,,,,1,0,,2,749.6862828250014,,,,,,747.3439574750009,748.817314418,748.817314418,748.817314418,k,0.8464901199986343,,,,,,,,,,,,,,,,,,,,,,,,,,,,,,,,,,,,,,,,,,,,,,,27754,2022-09-20_13h57.45.396,vts_reward_expectancy_OFFLINE,2022.2.4,60.217879367892955,
,,,,,,,,,,,,,,,,,,,,,,,,,,0,0,0,0,6,0,6,0,,,,,,,,,,,,,,,,,,,,,,,,,,,,,,,,,,,,,,,,756.088652729999,,,146,H,hexagon,0.00041364299977431074,,,,,1,0,,2,754.5723354080001,,,,,,752.1920063430007,753.6710626700005,753.6710626700005,753.6710626700005,j,0.8720461949997116,,,,,,,,,,,,,,,,,,,,,,,,,,,,,,,,,,,,,,,,,,,,,,,27754,2022-09-20_13h57.45.396,vts_reward_expectancy_OFFLINE,2022.2.4,60.217879367892955,
,,,,,,,,,,,,,,,,,,,,,,,,,,0,0,0,0,7,0,7,0,,,,,,,,,,,,,,,,,,,,,,,,,,,,,,,,,,,,,,,,760.7421165029991,,,181,U,star,0.017131308999523753,,,,,1,0,,2,759.2263658100019,,,,,,757.0840900750009,758.5573821760008,758.5573821760008,758.5573821760008,k,0.6503169069983414,,,,,,,,,,,,,,,,,,,,,,,,,,,,,,,,,,,,,,,,,,,,,,,27754,2022-09-20_13h57.45.396,vts_reward_expectancy_OFFLINE,2022.2.4,60.217879367892955,
,,,,,,,,,,,,,,,,,,,,,,,,,,0,0,0,0,8,0,8,0,,,,,,,,,,,,,,,,,,,,,,,,,,,,,,,,,,,,,,,,765.528931568002,,,167,S,hexagon,0.017057040000509005,,,,,1,0,,2,764.0136589110007,,,,,,761.7371800110013,763.2106742399992,763.2106742399992,763.2106742399992,k,0.7804632639999909,,,,,,,,,,,,,,,,,,,,,,,,,,,,,,,,,,,,,,,,,,,,,,,27754,2022-09-20_13h57.45.396,vts_reward_expectancy_OFFLINE,2022.2.4,60.217879367892955,
,,,,,,,,,,,,,,,,,,,,,,,,,,0,0,0,0,9,0,9,0,,,,,,,,,,,,,,,,,,,,,,,,,,,,,,,,,,,,,,,,770.1653531410011,,770.666603949001,160,D,circle,0.01579281600061222,,,,,1,0,,2,768.6666620239994,,,,,770.1653531410011,766.5243359320011,767.9985450210006,767.9985450210006,767.9985450210006,j,0.6416971300022851,,,,,,,,,,,,,,,,,,,,,,,,,,,,,,,,,,,,,,,,,,,,,,,27754,2022-09-20_13h57.45.396,vts_reward_expectancy_OFFLINE,2022.2.4,60.217879367892955,
,,,,,,,,,,,,,,,,,,,,,,,,,,,,,,,,,,0,0,0,0,0,0,0,0,,,,,,,,,,,,,,,,,,,,,,,,,,,,0,666,,,823.1217607440012,,,139,H,triangle,0.0023141480014601257,,,,,1,0,,3,,,,,,,,,,,,,818.3474336670006,818.3474336670006,818.3474336670006,818.3474336670006,819.8352155680004,819.8352155680004,819.8352155680004,819.8352155680004,819.8520640429997,819.8520640429997,819.8520640429997,819.8520640429997,-1,letter,NA,j,1.7564907209998637,vtsPrac,821.6239117959994,,,,,,,,,,,,,,,,,,,,,,,,,,,,27754,2022-09-20_13h57.45.396,vts_reward_expectancy_OFFLINE,2022.2.4,60.217879367892955,
,,,,,,,,,,,,,,,,,,,,,,,,,,,,,,,,,,0,0,0,0,1,0,1,0,,,,,,,,,,,,,,,,,,,,,,,,,,,,0,666,,,827.8579507030008,,,181,D,star,0.0009303199985879473,,,,,1,0,,3,,,,,,,,,,,,,824.117234338999,824.117234338999,824.117234338999,824.117234338999,825.6059103330008,825.6059103330008,825.6059103330008,825.6059103330008,825.6229475319997,825.6229475319997,825.6229475319997,825.6229475319997,repeat,letter,lettRpt,j,0.7293741829998908,vtsPrac,826.357373400002,,,,,,,,,,,,,,,,,,,,,,,,,,,,27754,2022-09-20_13h57.45.396,vts_reward_expectancy_OFFLINE,2022.2.4,60.217879367892955,
,,,,,,,,,,,,,,,,,,,,,,,,,,,,,,,,,,0,0,0,0,2,0,2,0,,,,,,,,,,,,,,,,,,,,,,,,,,,,0,666,,,833.1791029749984,,,132,W,circle,0.002544856000895379,,,,,1,0,,3,,,,,,,,,,,,,828.8542443170008,828.8542443170008,828.8542443170008,828.8542443170008,830.3428045789988,830.3428045789988,830.3428045789988,830.3428045789988,830.3596749950011,830.3596749950011,830.3596749950011,830.3596749950011,repeat,letter,lettRpt,k,1.305058336998627,vtsPrac,831.6779999680002,,,,,,,,,,,,,,,,,,,,,,,,,,,,27754,2022-09-20_13h57.45.396,vts_reward_expectancy_OFFLINE,2022.2.4,60.217879367892955,
,,,,,,,,,,,,,,,,,,,,,,,,,,,,,,,,,,0,0,0,0,3,0,3,0,,,,,,,,,,,,,,,,,,,,,,,,,,,,0,666,,,838.7828539350012,,,125,B,triangle,0.001386784999340307,,,,,1,0,,3,,,,,,,,,,,,,834.1745988190014,834.1745988190014,834.1745988190014,834.1745988190014,835.6628805239998,835.6628805239998,835.6628805239998,835.6628805239998,835.6801023500011,835.6801023500011,835.6801023500011,835.6801023500011,switch,number,numSwt,d,1.5844434719983838,vtsPrac,837.2805135310009,,,,,,,,,,,,,,,,,,,,,,,,,,,,27754,2022-09-20_13h57.45.396,vts_reward_expectancy_OFFLINE,2022.2.4,60.217879367892955,
,,,,,,,,,,,,,,,,,,,,,,,,,,,,,,,,,,0,0,0,0,4,0,4,0,,,,,,,,,,,,,,,,,,,,,,,,,,,,0,666,,,843.3528663489997,,,139,H,circle,0.0006048610011930577,,,,,1,0,,3,,,,,,,,,,,,,839.7889675260012,839.7889675260012,839.7889675260012,839.7889675260012,841.2675049110003,841.2675049110003,841.2675049110003,841.2675049110003,841.3003562279991,841.3003562279991,841.3003562279991,841.3003562279991,switch,letter,lettSwt,j,0.5562759919994278,vtsPrac,841.8519182259988,,,,,,,,,,,,,,,,,,,,,,,,,,,,27754,2022-09-20_13h57.45.396,vts_reward_expectancy_OFFLINE,2022.2.4,60.217879367892955,
,,,,,,,,,,,,,,,,,,,,,,,,,,,,,,,,,,0,0,0,0,5,0,5,0,,,,,,,,,,,,,,,,,,,,,,,,,,,,0,666,,,848.0734187099988,,,181,D,hexagon,0.002623453998239711,,,,,1,0,,3,,,,,,,,,,,,,844.3486094949985,844.3486094949985,844.3486094949985,844.3486094949985,845.8369660300013,845.8369660300013,845.8369660300013,845.8369660300013,845.8537697920001,845.8537697920001,845.8537697920001,845.8537697920001,switch,number,numSwt,f,0.7149706989985134,vtsPrac,846.5720658050013,,,,,,,,,,,,,,,,,,,,,,,,,,,,27754,2022-09-20_13h57.45.396,vts_reward_expectancy_OFFLINE,2022.2.4,60.217879367892955,
,,,,,,,,,,,,,,,,,,,,,,,,,,,,,,,,,,0,0,0,0,6,0,6,0,,,,,,,,,,,,,,,,,,,,,,,,,,,,0,666,,,852.7668935270012,,,132,W,star,0.0015687080012867227,,,,,1,0,,3,,,,,,,,,,,,,849.0680849550008,849.0680849550008,849.0680849550008,849.0680849550008,850.557645326,850.557645326,850.557645326,850.557645326,850.5733973070019,850.5733973070019,850.5733973070019,850.5733973070019,repeat,number,numRpt,d,0.681433683999785,vtsPrac,851.2595103439999,,,,,,,,,,,,,,,,,,,,,,,,,,,,27754,2022-09-20_13h57.45.396,vts_reward_expectancy_OFFLINE,2022.2.4,60.217879367892955,
,,,,,,,,,,,,,,,,,,,,,,,,,,,,,,,,,,0,0,0,0,7,0,7,0,,,,,,,,,,,,,,,,,,,,,,,,,,,,0,666,,,858.1972222229997,,,125,B,circle,0.0019193170010112226,,,,,1,0,,3,,,,,,,,,,,,,853.7552391339996,853.7552391339996,853.7552391339996,853.7552391339996,855.2443899850005,855.2443899850005,855.2443899850005,855.2443899850005,855.2610885089998,855.2610885089998,855.2610885089998,855.2610885089998,repeat,number,numRpt,d,1.4197203499970783,vtsPrac,856.6966143520003,,,,,,,,,,,,,,,,,,,,,,,,,,,,27754,2022-09-20_13h57.45.396,vts_reward_expectancy_OFFLINE,2022.2.4,60.217879367892955,
,,,,,,,,,,,,,,,,,,,,,,,,,,,,,,,,,,0,0,0,0,8,0,8,0,,,,,,,,,,,,,,,,,,,,,,,,,,,,0,666,,,865.2007748420001,,,139,F,triangle,0.0018815369985532016,,,,,-1,0,,3,,,,,,,,,,,,,859.1921190370012,859.1921190370012,859.1921190370012,859.1921190370012,860.6809892029996,860.6809892029996,860.6809892029996,860.6809892029996,860.6979504840019,860.6979504840019,860.6979504840019,860.6979504840019,switch,no_choice,NA,None,,vtsPrac,863.6989550200014,863.6989550200014,863.6989550200014,863.6989550200014,863.6989550200014,,,,,,,,,,,,,,,,,,,,,,,,27754,2022-09-20_13h57.45.396,vts_reward_expectancy_OFFLINE,2022.2.4,60.217879367892955,
,,,,,,,,,,,,,,,,,,,,,,,,,,,,,,,,,,0,0,0,0,9,0,9,0,,,,,,,,,,,,,,,,,,,,,,,,,,,,0,666,,,870.0553174039997,,,132,U,circle,0.006680419999611331,,,,,1,0,,3,,,,,,,,,,,,,866.1973139789989,866.1973139789989,866.1973139789989,866.1973139789989,867.6855501169994,867.6855501169994,867.6855501169994,867.6855501169994,867.7024362929988,867.7024362929988,867.7024362929988,867.7024362929988,switch,letter,lettSwt,k,0.8348404629978177,vtsPrac,868.540432875001,,,,,,,,,,,,,,,,,,,,,,,,,,,,27754,2022-09-20_13h57.45.396,vts_reward_expectancy_OFFLINE,2022.2.4,60.217879367892955,
,,,,,,,,,,,,,,,,,,,,,,,,,,,,,,,,,,0,0,0,0,10,0,10,0,,,,,,,,,,,,,,,,,,,,,,,,,,,,0,666,,,875.091599514999,,,181,Y,hexagon,0.00034038299781968817,,,,,1,0,,3,,,,,,,,,,,,,871.0450971419996,871.0450971419996,871.0450971419996,871.0450971419996,872.5227625049993,872.5227625049993,872.5227625049993,872.5227625049993,872.5555630039999,872.5555630039999,872.5555630039999,872.5555630039999,repeat,letter,lettRpt,k,1.0287515899981372,vtsPrac,873.5767885610003,,,,,,,,,,,,,,,,,,,,,,,,,,,,27754,2022-09-20_13h57.45.396,vts_reward_expectancy_OFFLINE,2022.2.4,60.217879367892955,
,,,,,,,,,,,,,,,,,,,,,,,,,,,,,,,,,,0,0,0,0,11,0,11,0,,,,,,,,,,,,,,,,,,,,,,,,,,,,0,666,,,880.1950157729989,,,174,D,circle,0.01670760699926177,,,,,1,0,,3,,,,,,,,,,,,,876.0880560410005,876.0880560410005,876.0880560410005,876.0880560410005,877.5591519070003,877.5591519070003,877.5591519070003,877.5591519070003,877.592940855,877.592940855,877.592940855,877.592940855,switch,number,numSwt,f,1.1047053129987034,vtsPrac,878.6962222729999,,,,,880.1950157729989,,,,,,,,,,,,,,,,,,,,,,,27754,2022-09-20_13h57.45.396,vts_reward_expectancy_OFFLINE,2022.2.4,60.217879367892955,
,,,,,,,,,,,,,,,,,,,,,,,,,,,,,,,,,,0,0,0,0,12,0,12,0,,,,,,,,,,,,,,,,,,,,,,,,,,,,0,666,,,885.1987407790002,,,181,U,hexagon,0.0004139560005569365,,,,,1,0,,3,,,,,,,,,,,,,881.2021484500001,881.2021484500001,881.2021484500001,881.2021484500001,882.6800042460018,882.6800042460018,882.6800042460018,882.6800042460018,882.7128694470011,882.7128694470011,882.7128694470011,882.7128694470011,repeat,number,numRpt,f,0.9838430810013961,vtsPrac,883.6839833060003,,,,,,,,,,,,,,,,,,,,,,,,,,,,27754,2022-09-20_13h57.45.396,vts_reward_expectancy_OFFLINE,2022.2.4,60.217879367892955,
,,,,,,,,,,,,,,,,,,,,,,,,,,,,,,,,,,0,0,0,0,13,0,13,0,,,,,,,,,,,,,,,,,,,,,,,,,,,,0,666,,,889.9023334580015,,890.402600333,139,D,circle,0.016778553999756696,,,,,1,0,,3,,,,,,,,,,,,,886.1951026450006,886.1951026450006,886.1951026450006,886.1951026450006,887.6664233849988,887.6664233849988,887.6664233849988,887.6664233849988,887.7006887360003,887.7006887360003,887.7006887360003,887.7006887360003,repeat,number,numRpt,d,0.709222752997448,vtsPrac,888.4037889309984,,,,,889.9023334580015,,,,,,,,,,,,,,,,,,,,,,,27754,2022-09-20_13h57.45.396,vts_reward_expectancy_OFFLINE,2022.2.4,60.217879367892955,
,,,,,,,,,,,,,,,,,,,,,,,,,,,,,,,,,,0,0,0,0,14,0,14,0,,,,,,,,,,,,,,,,,,,,,,,,,,,,0,666,,,894.9060435659994,,,132,W,hexagon,0.0006179619995236862,,,,,1,0,,3,,,,,,,,,,,,,890.9102222479996,890.9102222479996,890.9102222479996,890.9102222479996,892.3871572989992,892.3871572989992,892.3871572989992,892.3871572989992,892.419732579001,892.419732579001,892.419732579001,892.419732579001,switch,letter,lettSwt,k,0.9799618380020547,vtsPrac,893.3915195340014,,,,,,,,,,,,,,,,,,,,,,,,,,,,27754,2022-09-20_13h57.45.396,vts_reward_expectancy_OFFLINE,2022.2.4,60.217879367892955,
,,,,,,,,,,,,,,,,,,,,,,,,,,,,,,,,,,0,0,0,0,15,0,15,0,,,,,,,,,,,,,,,,,,,,,,,,,,,,0,666,,,899.9098546940004,,,125,Y,star,0.016715663998184027,,,,,1,0,,3,,,,,,,,,,,,,895.9022288570013,895.9022288570013,895.9022288570013,895.9022288570013,897.3734859889992,897.3734859889992,897.3734859889992,897.3734859889992,897.4075319830008,897.4075319830008,897.4075319830008,897.4075319830008,repeat,letter,lettRpt,k,1.0026021919984487,vtsPrac,898.3948793179989,,,,,,,,,,,,,,,,,,,,,,,,,,,,27754,2022-09-20_13h57.45.396,vts_reward_expectancy_OFFLINE,2022.2.4,60.217879367892955,
,,,,,,,,,,,,,,,,,,,,,,,,,,,,,,,,,,,,,,,,,,0,0,0,0,,,,,,,,,,,,,,,,,,,,,,,,0,666,,,926.5955494219997,,,174,H,hexagon,0.0011229769988858607,,,,,1,0,,,,,,,,,,,,,,,922.2492100980016,922.2492100980016,922.2492100980016,922.2492100980016,923.7273933860015,923.7273933860015,923.7273933860015,923.7273933860015,923.7612904519992,923.7612904519992,923.7612904519992,923.7612904519992,switch,number,numSwt,f,1.3201684980012942,noRew,,,,,,,0,925.0809586270007,,,,,,,,,,,,,,,,,,,,,27754,2022-09-20_13h57.45.396,vts_reward_expectancy_OFFLINE,2022.2.4,60.217879367892955,
,,,,,,,,,,,,,,,,,,,,,,,,,,,,,,,,,,,,,,,,,,1,0,1,0,,,,,,,,,,,,,,,,,,,,,,,,0,666,,,931.5321191900002,,,181,Y,circle,0.015905668999039335,,,,,1,0,,,,,,,,,,,,,,,927.5912803380015,927.5912803380015,927.5912803380015,927.5912803380015,929.0650837249996,929.0650837249996,929.0650837249996,929.0650837249996,929.0984988720011,929.0984988720011,929.0984988720011,929.0984988720011,repeat,number,numRpt,f,0.9268091749981977,noRew,,,,,,,0,930.0175877949987,,,,,,,,,,,,,,,,,,,,,27754,2022-09-20_13h57.45.396,vts_reward_expectancy_OFFLINE,2022.2.4,60.217879367892955,
,,,,,,,,,,,,,,,,,,,,,,,,,,,,,,,,,,,,,,,,,,2,0,2,0,,,,,,,,,,,,,,,,,,,,,,,,0,666,,,936.0354170079991,,936.5357345029988,167,W,circle,0.016874842000106582,,,,,1,0,,,,,,,,,,,,,,,932.529031162001,932.529031162001,932.529031162001,932.529031162001,934.001986883999,934.001986883999,934.001986883999,934.001986883999,934.0347245039993,934.0347245039993,934.0347245039993,934.0347245039993,switch,letter,lettSwt,k,0.5014401939988602,noRew,,,,,,,0,934.535000980999,936.0354170079991,,,,,,,,,,,,,,,,,,,,27754,2022-09-20_13h57.45.396,vts_reward_expectancy_OFFLINE,2022.2.4,60.217879367892955,
,,,,,,,,,,,,,,,,,,,,,,,,,,,,,,,,,,,,,,,,,,3,0,3,0,,,,,,,,,,,,,,,,,,,,,,,,0,666,,,940.7730653100007,,,139,F,hexagon,0.013456730001053074,,,,,1,0,,,,,,,,,,,,,,,937.0480561250006,937.0480561250006,937.0480561250006,937.0480561250006,938.5222985299988,938.5222985299988,938.5222985299988,938.5222985299988,938.5550858489987,938.5550858489987,938.5550858489987,938.5550858489987,switch,number,numSwt,d,0.7090676359985082,noRew,,,,,,,0,939.2572998729993,,,,,,,,,,,,,,,,,,,,,27754,2022-09-20_13h57.45.396,vts_reward_expectancy_OFFLINE,2022.2.4,60.217879367892955,
,,,,,,,,,,,,,,,,,,,,,,,,,,,,,,,,,,,,,,,,,,4,0,4,0,,,,,,,,,,,,,,,,,,,,,,,,0,666,,,946.4600852410003,,946.9599771499998,174,H,star,0.017423571000108495,,,,,1,0,,,,,,,,,,,,,,,941.7689335520008,941.7689335520008,941.7689335520008,941.7689335520008,943.241583766001,943.241583766001,943.241583766001,943.241583766001,943.2754942749998,943.2754942749998,943.2754942749998,943.2754942749998,switch,letter,lettSwt,j,1.6859644149990345,noRew,,,,,,,0,944.959605565,946.4600852410003,,,,,,,,,,,,,,,,,,,,27754,2022-09-20_13h57.45.396,vts_reward_expectancy_OFFLINE,2022.2.4,60.217879367892955,
,,,,,,,,,,,,,,,,,,,,,,,,,,,,,,,,,,,,,,,,,,5,0,5,0,,,,,,,,,,,,,,,,,,,,,,,,0,666,,,951.3465312389999,,,181,Y,hexagon,0.014482655002211686,,,,,1,0,,,,,,,,,,,,,,,947.4725640680008,947.4725640680008,947.4725640680008,947.4725640680008,948.9456389240004,948.9456389240004,948.9456389240004,948.9456389240004,948.9795305320004,948.9795305320004,948.9795305320004,948.9795305320004,repeat,letter,lettRpt,k,0.8539865800012194,noRew,,,,,,,0,949.8321764450011,,,,,,,,,,,,,,,,,,,,,27754,2022-09-20_13h57.45.396,vts_reward_expectancy_OFFLINE,2022.2.4,60.217879367892955,
,,,,,,,,,,,,,,,,,,,,,,,,,,,,,,,,,,,,,,,,,,6,0,6,0,,,,,,,,,,,,,,,,,,,,,,,,0,666,,,955.9500929919996,,,167,W,star,0.01680661599675659,,,,,1,0,,,,,,,,,,,,,,,952.3428256769985,952.3428256769985,952.3428256769985,952.3428256769985,953.8164946590005,953.8164946590005,953.8164946590005,953.8164946590005,953.8491613510014,953.8491613510014,953.8491613510014,953.8491613510014,repeat,letter,lettRpt,k,0.5907097660019645,noRew,,,,,,,0,954.4355471039999,,,,,,,,,,,,,,,,,,,,,27754,2022-09-20_13h57.45.396,vts_reward_expectancy_OFFLINE,2022.2.4,60.217879367892955,
,,,,,,,,,,,,,,,,,,,,,,,,,,,,,,,,,,,,,,,,,,7,0,7,0,,,,,,,,,,,,,,,,,,,,,,,,0,666,,,961.1208380050011,,,139,F,circle,0.016417761999036884,,,,,1,0,,,,,,,,,,,,,,,956.9465773949996,956.9465773949996,956.9465773949996,956.9465773949996,958.4199268189986,958.4199268189986,958.4199268189986,958.4199268189986,958.4525558880014,958.4525558880014,958.4525558880014,958.4525558880014,repeat,letter,lettRpt,j,1.1554132710007252,noRew,,,,,,,0,959.6054488990012,,,,,,,,,,,,,,,,,,,,,27754,2022-09-20_13h57.45.396,vts_reward_expectancy_OFFLINE,2022.2.4,60.217879367892955,
,,,,,,,,,,,,,,,,,,,,,,,,,,,,,,,,,,,,,,,,,,8,0,8,0,,,,,,,,,,,,,,,,,,,,,,,,0,666,,,965.9243835359994,,,139,U,hexagon,0.01634930599902873,,,,,1,0,,,,,,,,,,,,,,,962.116463082999,962.116463082999,962.116463082999,962.116463082999,963.5901017169999,963.5901017169999,963.5901017169999,963.5901017169999,963.6233270180019,963.6233270180019,963.6233270180019,963.6233270180019,switch,number,numSwt,d,0.7858471520012245,noRew,,,,,,,0,964.408895012999,,,,,,,,,,,,,,,,,,,,,27754,2022-09-20_13h57.45.396,vts_reward_expectancy_OFFLINE,2022.2.4,60.217879367892955,
,,,,,,,,,,,,,,,,,,,,,,,,,,,,,,,,,,,,,,,,,,9,0,9,0,,,,,,,,,,,,,,,,,,,,,,,,0,666,,,970.8606615249992,,,167,B,circle,0.01630530599868507,,,,,1,0,,,,,,,,,,,,,,,966.9203110359995,966.9203110359995,966.9203110359995,966.9203110359995,968.3939988310012,968.3939988310012,968.3939988310012,968.3939988310012,968.4267959460012,968.4267959460012,968.4267959460012,968.4267959460012,repeat,number,numRpt,f,0.93357239100078,noRew,,,,,,,0,969.3471626040009,,,,,,,,,,,,,,,,,,,,,27754,2022-09-20_13h57.45.396,vts_reward_expectancy_OFFLINE,2022.2.4,60.217879367892955,
,,,,,,,,,,,,,,,,,,,,,,,,,,,,,,,,,,,,,,,,,,10,0,10,0,,,,,,,,,,,,,,,,,,,,,,,,0,666,,,976.0983688410015,,,160,W,star,0.016369323999242624,,,,,1,0,,,,,,,,,,,,,,,971.8575954260014,971.8575954260014,971.8575954260014,971.8575954260014,973.3305116890006,973.3305116890006,973.3305116890006,973.3305116890006,973.363460214001,973.363460214001,973.363460214001,973.363460214001,switch,letter,lettSwt,k,1.2293248499991023,noRew,,,,,,,0,974.5828726569998,,,,,,,,,,,,,,,,,,,,,27754,2022-09-20_13h57.45.396,vts_reward_expectancy_OFFLINE,2022.2.4,60.217879367892955,
,,,,,,,,,,,,,,,,,,,,,,,,,,,,,,,,,,,,,,,,,,11,0,11,0,,,,,,,,,,,,,,,,,,,,,,,,0,666,,,981.602214393999,,,146,F,hexagon,0.017350164998788387,,,,,1,0,,,,,,,,,,,,,,,977.0944929260004,977.0944929260004,977.0944929260004,977.0944929260004,978.5673374549988,978.5673374549988,978.5673374549988,978.5673374549988,978.6011576640012,978.6011576640012,978.6011576640012,978.6011576640012,switch,number,numSwt,d,1.4961483019978914,noRew,,,,,,,0,980.0867648880012,,,,,,,,,,,,,,,,,,,,,27754,2022-09-20_13h57.45.396,vts_reward_expectancy_OFFLINE,2022.2.4,60.217879367892955,
,,,,,,,,,,,,,,,,,,,,,,,,,,,,,,,,,,,,,,,,,,12,0,12,0,,,,,,,,,,,,,,,,,,,,,,,,0,666,,,986.3891867120001,,,181,F,hexagon,0.017290126001171302,,,,,1,0,,,,,,,,,,,,,,,982.5977594600008,982.5977594600008,982.5977594600008,982.5977594600008,984.0710286220019,984.0710286220019,984.0710286220019,984.0710286220019,984.1050874780012,984.1050874780012,984.1050874780012,984.1050874780012,repeat,number,numRpt,f,0.7843660760008788,noRew,,,,,,,0,984.8739799059986,,,,,,,,,,,,,,,,,,,,,27754,2022-09-20_13h57.45.396,vts_reward_expectancy_OFFLINE,2022.2.4,60.217879367892955,
,,,,,,,,,,,,,,,,,,,,,,,,,,,,,,,,,,,,,,,,,,13,0,13,0,,,,,,,,,,,,,,,,,,,,,,,,0,666,,,991.609489118,,,174,Y,star,0.015657823998481035,,,,,1,0,,,,,,,,,,,,,,,987.3848792630015,987.3848792630015,987.3848792630015,987.3848792630015,988.8585763480005,988.8585763480005,988.8585763480005,988.8585763480005,988.8917941079999,988.8917941079999,988.8917941079999,988.8917941079999,switch,letter,lettSwt,k,1.213047067001753,noRew,,,,,,,0,990.0936262499999,,,,,,,,,,,,,,,,,,,,,27754,2022-09-20_13h57.45.396,vts_reward_expectancy_OFFLINE,2022.2.4,60.217879367892955,
,,,,,,,,,,,,,,,,,,,,,,,,,,,,,,,,,,,,,,,,,,14,0,14,0,,,,,,,,,,,,,,,,,,,,,,,,0,666,,,996.5792428429995,,,146,D,hexagon,0.01749757600191515,,,,,1,0,,,,,,,,,,,,,,,992.6056621659991,992.6056621659991,992.6056621659991,992.6056621659991,994.078372046999,994.078372046999,994.078372046999,994.078372046999,994.1123466610006,994.1123466610006,994.1123466610006,994.1123466610006,repeat,letter,lettRpt,j,0.9613124540010176,noRew,,,,,,,0,995.0650150530018,,,,,,,,,,,,,,,,,,,,,27754,2022-09-20_13h57.45.396,vts_reward_expectancy_OFFLINE,2022.2.4,60.217879367892955,
,,,,,,,,,,,,,,,,,,,,,,,,,,,,,,,,,,,,,,,,,,15,0,15,0,,,,,,,,,,,,,,,,,,,,,,,,0,666,,,1001.266528619999,,,139,S,triangle,0.0165385399996012,,,,,1,0,,,,,,,,,,,,,,,997.5761456750006,997.5761456750006,997.5761456750006,997.5761456750006,999.0489694839998,999.0489694839998,999.0489694839998,999.0489694839998,999.0821076579996,999.0821076579996,999.0821076579996,999.0821076579996,repeat,letter,lettRpt,k,0.6787436670019815,noRew,,,,,,,0,999.7514153869997,,,,,,,,,,,,,,,,,,,,,27754,2022-09-20_13h57.45.396,vts_reward_expectancy_OFFLINE,2022.2.4,60.217879367892955,
,,,,,,,,,,,,,,,,,,,,,,,,,,,,,,,,,,,,,,,,,,16,0,16,0,,,,,,,,,,,,,,,,,,,,,,,,0,666,,,1006.0704684810007,,,174,Y,triangle,0.017677807998552453,,,,,1,0,,,,,,,,,,,,,,,1002.2627891970005,1002.2627891970005,1002.2627891970005,1002.2627891970005,1003.7354914150019,1003.7354914150019,1003.7354914150019,1003.7354914150019,1003.7695875960017,1003.7695875960017,1003.7695875960017,1003.7695875960017,switch,number,numSwt,f,0.7919593560000067,noRew,,,,,,,0,1004.5547702250005,,,,,,,,,,,,,,,,,,,,,27754,2022-09-20_13h57.45.396,vts_reward_expectancy_OFFLINE,2022.2.4,60.217879367892955,
,,,,,,,,,,,,,,,,,,,,,,,,,,,,,,,,,,,,,,,,,,17,0,17,0,,,,,,,,,,,,,,,,,,,,,,,,0,666,,,1010.7397836380005,,,181,B,star,0.017248679003387224,,,,,1,0,,,,,,,,,,,,,,,1007.0659163089986,1007.0659163089986,1007.0659163089986,1007.0659163089986,1008.5388220079985,1008.5388220079985,1008.5388220079985,1008.5388220079985,1008.5729390820015,1008.5729390820015,1008.5729390820015,1008.5729390820015,repeat,number,numRpt,f,0.6533062509988667,noRew,,,,,,,0,1009.2254983499988,,,,,,,,,,,,,,,,,,,,,27754,2022-09-20_13h57.45.396,vts_reward_expectancy_OFFLINE,2022.2.4,60.217879367892955,
,,,,,,,,,,,,,,,,,,,,,,,,,,,,,,,,,,,,,,,,,,18,0,18,0,,,,,,,,,,,,,,,,,,,,,,,,0,666,,,1015.3776154240004,,,167,D,triangle,0.01686243500080309,,,,,1,0,,,,,,,,,,,,,,,1011.7361193809993,1011.7361193809993,1011.7361193809993,1011.7361193809993,1013.2097254910004,1013.2097254910004,1013.2097254910004,1013.2097254910004,1013.2424382179997,1013.2424382179997,1013.2424382179997,1013.2424382179997,repeat,number,numRpt,f,0.6294484040008683,noRew,,,,,,,0,1013.8618891539991,,,,,,,,,,,,,,,,,,,,,27754,2022-09-20_13h57.45.396,vts_reward_expectancy_OFFLINE,2022.2.4,60.217879367892955,
,,,,,,,,,,,,,,,,,,,,,,,,,,,,,,,,,,,,,,,,,,19,0,19,0,,,,,,,,,,,,,,,,,,,,,,,,0,666,,,1020.1809883679998,,1020.6812479510008,125,S,star,0.017236448999028653,,,,,1,0,,,,,,,,,,,,,,,1016.373008221999,1016.373008221999,1016.373008221999,1016.373008221999,1017.8442243749996,1017.8442243749996,1017.8442243749996,1017.8442243749996,1017.8754310969998,1017.8754310969998,1017.8754310969998,1017.8754310969998,repeat,number,numRpt,d,0.8031344039991382,noRew,,,,,,,0,1018.6801522669994,1020.1809883679998,,,,,,,,,,,,,,,,,,,,27754,2022-09-20_13h57.45.396,vts_reward_expectancy_OFFLINE,2022.2.4,60.217879367892955,
,,,,,,,,,,,,,,,,,,,,,,,,,,,,,,,,,,,,,,,,,,20,0,20,0,,,,,,,,,,,,,,,,,,,,,,,,0,666,,,1025.0844807249996,,,125,B,hexagon,0.015155364002566785,,,,,1,0,,,,,,,,,,,,,,,1021.1933473530007,1021.1933473530007,1021.1933473530007,1021.1933473530007,1022.6814716570007,1022.6814716570007,1022.6814716570007,1022.6814716570007,1022.6984313229987,1022.6984313229987,1022.6984313229987,1022.6984313229987,repeat,number,numRpt,d,0.8625589919975027,noRew,,,,,,,0,1023.5690973689998,,,,,,,,,,,,,,,,,,,,,27754,2022-09-20_13h57.45.396,vts_reward_expectancy_OFFLINE,2022.2.4,60.217879367892955,
,,,,,,,,,,,,,,,,,,,,,,,,,,,,,,,,,,,,,,,,,,21,0,21,0,,,,,,,,,,,,,,,,,,,,,,,,0,666,,,1029.888136349,,,160,W,star,0.017097863998060348,,,,,1,0,,,,,,,,,,,,,,,1026.0798331879996,1026.0798331879996,1026.0798331879996,1026.0798331879996,1027.5514948540003,1027.5514948540003,1027.5514948540003,1027.5514948540003,1027.5852881149985,1027.5852881149985,1027.5852881149985,1027.5852881149985,switch,letter,lettSwt,k,0.7997958689993538,noRew,,,,,,,0,1028.3723903360005,,,,,,,,,,,,,,,,,,,,,27754,2022-09-20_13h57.45.396,vts_reward_expectancy_OFFLINE,2022.2.4,60.217879367892955,
,,,,,,,,,,,,,,,,,,,,,,,,,,,,,,,,,,,,,,,,,,22,0,22,0,,,,,,,,,,,,,,,,,,,,,,,,0,666,,,1035.0250461739997,,,146,U,hexagon,0.01736018199881073,,,,,1,0,,,,,,,,,,,,,,,1030.8834728580005,1030.8834728580005,1030.8834728580005,1030.8834728580005,1032.3550621860013,1032.3550621860013,1032.3550621860013,1032.3550621860013,1032.388903217001,1032.388903217001,1032.388903217001,1032.388903217001,switch,number,numSwt,d,1.1320976850001898,noRew,,,,,,,0,1033.5095586649986,,,,,,,,,,,,,,,,,,,,,27754,2022-09-20_13h57.45.396,vts_reward_expectancy_OFFLINE,2022.2.4,60.217879367892955,
,,,,,,,,,,,,,,,,,,,,,,,,,,,,,,,,,,,,,,,,,,23,0,23,0,,,,,,,,,,,,,,,,,,,,,,,,0,666,,,1040.245566728001,,,167,S,star,0.00048555700050201267,,,,,1,0,,,,,,,,,,,,,,,1036.0148083429995,1036.0148083429995,1036.0148083429995,1036.0148083429995,1037.492625367002,1037.492625367002,1037.492625367002,1037.492625367002,1037.5252527439989,1037.5252527439989,1037.5252527439989,1037.5252527439989,switch,letter,lettSwt,k,1.2114570419980737,noRew,,,,,,,0,1038.72990441,,,,,,,,,,,,,,,,,,,,,27754,2022-09-20_13h57.45.396,vts_reward_expectancy_OFFLINE,2022.2.4,60.217879367892955,
,,,,,,,,,,,,,,,,,,,,,,,,,,,,,,,,,,,,,,,,,,24,0,24,0,,,,,,,,,,,,,,,,,,,,,,,,0,666,,,1045.3325294620008,,,139,W,triangle,0.01759377499911352,,,,,1,0,,,,,,,,,,,,,,,1041.241101333002,1041.241101333002,1041.241101333002,1041.241101333002,1042.7124694509985,1042.7124694509985,1042.7124694509985,1042.7124694509985,1042.746329474001,1042.746329474001,1042.746329474001,1042.746329474001,switch,number,numSwt,d,1.0715626910023275,noRew,,,,,,,0,1043.817047225999,,,,,,,,,,,,,,,,,,,,,27754,2022-09-20_13h57.45.396,vts_reward_expectancy_OFFLINE,2022.2.4,60.217879367892955,
,,,,,,,,,,,,,,,,,,,,,,,,,,,,,,,,,,,,,,,,,,25,0,25,0,,,,,,,,,,,,,,,,,,,,,,,,0,666,,,1050.1358320049985,,,167,F,hexagon,0.016005475001293235,,,,,1,0,,,,,,,,,,,,,,,1046.3280851700001,1046.3280851700001,1046.3280851700001,1046.3280851700001,1047.7992105519988,1047.7992105519988,1047.7992105519988,1047.7992105519988,1047.8332223830002,1047.8332223830002,1047.8332223830002,1047.8332223830002,repeat,number,numRpt,f,0.7927116489991022,noRew,,,,,,,0,1048.6205661079985,,,,,,,,,,,,,,,,,,,,,27754,2022-09-20_13h57.45.396,vts_reward_expectancy_OFFLINE,2022.2.4,60.217879367892955,
,,,,,,,,,,,,,,,,,,,,,,,,,,,,,,,,,,,,,,,,,,26,0,26,0,,,,,,,,,,,,,,,,,,,,,,,,0,666,,,1055.1064675000016,,,146,U,triangle,0.016188525998586556,,,,,1,0,,,,,,,,,,,,,,,1051.1315342519993,1051.1315342519993,1051.1315342519993,1051.1315342519993,1052.6028563319996,1052.6028563319996,1052.6028563319996,1052.6028563319996,1052.6370499160003,1052.6370499160003,1052.6370499160003,1052.6370499160003,switch,letter,lettSwt,k,0.9567855229979614,noRew,,,,,,,0,1053.5908708880015,,,,,,,,,,,,,,,,,,,,,27754,2022-09-20_13h57.45.396,vts_reward_expectancy_OFFLINE,2022.2.4,60.217879367892955,
,,,,,,,,,,,,,,,,,,,,,,,,,,,,,,,,,,,,,,,,,,27,0,27,0,,,,,,,,,,,,,,,,,,,,,,,,0,666,,,1060.1260244490004,,,132,B,hexagon,0.017116202998295194,,,,,1,0,,,,,,,,,,,,,,,1056.1015905610002,1056.1015905610002,1056.1015905610002,1056.1015905610002,1057.573164079,1057.573164079,1057.573164079,1057.573164079,1057.6071427800016,1057.6071427800016,1057.6071427800016,1057.6071427800016,switch,number,numSwt,d,1.010276963999786,noRew,,,,,,,0,1058.6114960769992,,,,,,,,,,,,,,,,,,,,,27754,2022-09-20_13h57.45.396,vts_reward_expectancy_OFFLINE,2022.2.4,60.217879367892955,
,,,,,,,,,,,,,,,,,,,,,,,,,,,,,,,,,,,,,,,,,,28,0,28,0,,,,,,,,,,,,,,,,,,,,,,,,0,666,,,1065.2969339090014,,,181,F,hexagon,0.01694110899916268,,,,,1,0,,,,,,,,,,,,,,,1061.1221383949996,1061.1221383949996,1061.1221383949996,1061.1221383949996,1062.594089954,1062.594089954,1062.594089954,1062.594089954,1062.6270473330005,1062.6270473330005,1062.6270473330005,1062.6270473330005,switch,letter,lettSwt,j,1.157920079996984,noRew,,,,,,,0,1063.7819357150001,,,,,,,,,,,,,,,,,,,,,27754,2022-09-20_13h57.45.396,vts_reward_expectancy_OFFLINE,2022.2.4,60.217879367892955,
,,,,,,,,,,,,,,,,,,,,,,,,,,,,,,,,,,,,,,,,,,29,0,29,0,,,,,,,,,,,,,,,,,,,,,,,,0,666,,,1069.817300865001,,,139,Y,circle,0.016011806001188233,,,,,1,0,,,,,,,,,,,,,,,1066.2925808069995,1066.2925808069995,1066.2925808069995,1066.2925808069995,1067.7638294520002,1067.7638294520002,1067.7638294520002,1067.7638294520002,1067.7977311159993,1067.7977311159993,1067.7977311159993,1067.7977311159993,repeat,letter,lettRpt,k,0.5153735819985741,noRew,,,,,,,0,1068.3016788390014,,,,,,,,,,,,,,,,,,,,,27754,2022-09-20_13h57.45.396,vts_reward_expectancy_OFFLINE,2022.2.4,60.217879367892955,
,,,,,,,,,,,,,,,,,,,,,,,,,,,,,,,,,,,,,,,,,,30,0,30,0,,,,,,,,,,,,,,,,,,,,,,,,0,666,,,1074.5866357580016,,,125,D,circle,0.017380548000801355,,,,,1,0,,,,,,,,,,,,,,,1070.812309748002,1070.812309748002,1070.812309748002,1070.812309748002,1072.2839981680008,1072.2839981680008,1072.2839981680008,1072.2839981680008,1072.3180293090008,1072.3180293090008,1072.3180293090008,1072.3180293090008,repeat,letter,lettRpt,j,0.7632065329999023,noRew,,,,,,,0,1073.0726284289995,,,,,,,,,,,,,,,,,,,,,27754,2022-09-20_13h57.45.396,vts_reward_expectancy_OFFLINE,2022.2.4,60.217879367892955,
,,,,,,,,,,,,,,,,,,,,,,,,,,,,,,,,,,,,,,,,,,31,0,31,0,,,,,,,,,,,,,,,,,,,,,,,,0,666,,,1080.3407014190016,,,132,U,star,0.016809128999739187,,,,,1,0,,,,,,,,,,,,,,,1075.582986851001,1075.582986851001,1075.582986851001,1075.582986851001,1077.0541701779985,1077.0541701779985,1077.0541701779985,1077.0541701779985,1077.088109749002,1077.088109749002,1077.088109749002,1077.088109749002,switch,number,numSwt,d,1.7462503440001456,noRew,,,,,,,0,1078.8264647120013,,,,,,,,,,,,,,,,,,,,,27754,2022-09-20_13h57.45.396,vts_reward_expectancy_OFFLINE,2022.2.4,60.217879367892955,
,,,,,,,,,,,,,,,,,,,,,,,,,,,,,,,,,,,,,,,,,,32,0,32,0,,,,,,,,,,,,,,,,,,,,,,,,0,666,,,1086.2443046139997,,1086.7448780740015,160,H,hexagon,0.016945262002991512,,,,,1,0,,,,,,,,,,,,,,,1081.3369582990017,1081.3369582990017,1081.3369582990017,1081.3369582990017,1082.8081928409993,1082.8081928409993,1082.8081928409993,1082.8081928409993,1082.842101372,1082.842101372,1082.842101372,1082.842101372,switch,letter,lettSwt,j,1.9037240840007144,noRew,,,,,,,0,1084.7440120149986,1086.2443046139997,,,,,,,,,,,,,,,,,,,,27754,2022-09-20_13h57.45.396,vts_reward_expectancy_OFFLINE,2022.2.4,60.217879367892955,
,,,,,,,,,,,,,,,,,,,,,,,,,,,,,,,,,,,,,,,,,,33,0,33,0,,,,,,,,,,,,,,,,,,,,,,,,0,666,,,1090.9152142890016,,,125,U,triangle,0.013647773001139285,,,,,1,0,,,,,,,,,,,,,,,1087.256999016001,1087.256999016001,1087.256999016001,1087.256999016001,1088.7311409920003,1088.7311409920003,1088.7311409920003,1088.7311409920003,1088.764278658,1088.764278658,1088.764278658,1088.764278658,switch,number,numSwt,d,0.644718453000678,noRew,,,,,,,0,1089.4008367040005,,,,,,,,,,,,,,,,,,,,,27754,2022-09-20_13h57.45.396,vts_reward_expectancy_OFFLINE,2022.2.4,60.217879367892955,
,,,,,,,,,,,,,,,,,,,,,,,,,,,,,,,,,,,,,,,,,,34,0,34,0,,,,,,,,,,,,,,,,,,,,,,,,0,666,,,1095.9681831080015,,,167,D,star,0.015696301001298707,,,,,1,0,,,,,,,,,,,,,,,1091.911233482002,1091.911233482002,1091.911233482002,1091.911233482002,1093.3846288960012,1093.3846288960012,1093.3846288960012,1093.3846288960012,1093.4180676530013,1093.4180676530013,1093.4180676530013,1093.4180676530013,repeat,number,numRpt,f,1.0394391529989662,noRew,,,,,,,0,1094.4610611720018,,,,,,,,,,,,,,,,,,,,,27754,2022-09-20_13h57.45.396,vts_reward_expectancy_OFFLINE,2022.2.4,60.217879367892955,
,,,,,,,,,,,,,,,,,,,,,,,,,,,,,,,,,,,,,,,,,,35,0,35,0,,,,,,,,,,,,,,,,,,,,,,,,0,666,,,1100.8552073190003,,,132,B,triangle,0.01674981299947831,,,,,1,0,,,,,,,,,,,,,,,1096.964545810999,1096.964545810999,1096.964545810999,1096.964545810999,1098.4383437690012,1098.4383437690012,1098.4383437690012,1098.4383437690012,1098.4714025559988,1098.4714025559988,1098.4714025559988,1098.4714025559988,repeat,number,numRpt,d,0.8733020030012995,noRew,,,,,,,0,1099.3412906839985,,,,,,,,,,,,,,,,,,,,,27754,2022-09-20_13h57.45.396,vts_reward_expectancy_OFFLINE,2022.2.4,60.217879367892955,
