LTriangleOpac,LCircleOpac,LHexagonOpac,LStarOpac,RTriangleOpac,RCircleOpac,RHexagonOpac,RStarOpac,LShape_ID,RShape_ID,training_blocks.thisRepN,training_blocks.thisTrialN,training_blocks.thisN,training_blocks.thisIndex,training.thisRepN,training.thisTrialN,training.thisN,training.thisIndex,task1_prac_redo.thisRepN,task1_prac_redo.thisTrialN,task1_prac_redo.thisN,task1_prac_redo.thisIndex,task1_prac_trials.thisRepN,task1_prac_trials.thisTrialN,task1_prac_trials.thisN,task1_prac_trials.thisIndex,task2_prac_redo.thisRepN,task2_prac_redo.thisTrialN,task2_prac_redo.thisN,task2_prac_redo.thisIndex,task2_praac_trials.thisRepN,task2_praac_trials.thisTrialN,task2_praac_trials.thisN,task2_praac_trials.thisIndex,vts_prac_redo.thisRepN,vts_prac_redo.thisTrialN,vts_prac_redo.thisN,vts_prac_redo.thisIndex,vts_practice_trials.thisRepN,vts_practice_trials.thisTrialN,vts_practice_trials.thisN,vts_practice_trials.thisIndex,trials_norew.thisRepN,trials_norew.thisTrialN,trials_norew.thisN,trials_norew.thisIndex,block.thisRepN,block.thisTrialN,block.thisN,block.thisIndex,trials_rew.thisRepN,trials_rew.thisTrialN,trials_rew.thisN,trials_rew.thisIndex,key_resp.started,key_resp.keys,key_resp.rt,left_circle.started,right_circle.started,left_triangle.started,right_triangle.started,left_star.started,right_star.started,left_hexagon.started,right_hexagon.started,training_fix.started,training_resp.started,training_resp.keys,training_resp.rt,points_trial,points_cumul,trainBlock,training_feedback_txt.started,fix.started,training_feedback_txt.stopped,curr_topStim,curr_bottStim,curr_shape,ISI.started,tgt_fix_prac1.started,top_target_prac1.started,bott_target_prac1.started,target_resp_prac1.started,acc,E1,target_resp_prac1.keys,target_resp_prac1.rt,pracBlock,prac_fback_text.started,tgt_fix_prac2.started,top_target_prac2.started,bott_target_prac2.started,target_resp_prac2.started,target_resp_prac2.keys,target_resp_prac2.rt,prac_fback_text.stopped,star.started,hegagon.started,triangle.started,circle.started,top_target.started,tgt_fix.started,bot_target.started,target_resp.started,star.stopped,hegagon.stopped,triangle.stopped,circle.stopped,top_target.stopped,tgt_fix.stopped,bot_target.stopped,target_resp.stopped,alt,task,condition,target_resp.keys,rewCond,vts_fback.started,vts_fback.stopped,fix.stopped,target_resp.rt,blockNum,norew_fback.started,norew_fback.stopped,key_resp_2.keys,key_resp_2.rt,feedbk_text.started,feedbk_text.stopped,button.started,participant,date,expName,psychopyVersion,frameRate,
,,,,,,,,,,,,,,,,,,,,,,,,,,,,,,,,,,,,,,,,,,,,,,,,,,,,,,24.995678701001452,space,69.9306757839986,,,,,,,,,,,,,,,,,,,,,,,,,,,,,,,,,,,,,,,,,,,,,,,,,,,,,,,,,,,,,,,,,,,,,,,,,28713,2022-09-16_15h13.36.017,vts_reward_expectancy,2022.2.4,59.99656747655878,
0,0,0,1,0,0,1,0,star,hexagon,0,0,0,0,0,0,0,11,,,,,,,,,,,,,,,,,,,,,,,,,,,,,,,,,,,,,,,,146.12676350400216,146.12676350400216,146.12676350400216,146.12676350400216,146.12676350400216,146.12676350400216,146.12676350400216,146.12676350400216,146.12676350400216,146.12676350400216,l,8.935290202996839,1,1,0,155.08998901000086,156.5913840880021,,,,,,,,,,,,,,,,,,,,,,,,,,,,,,,,,,,,,,,,,,,,,,,,,,,,,,,,28713,2022-09-16_15h13.36.017,vts_reward_expectancy,2022.2.4,59.99656747655878,
0,0,1,0,1,0,0,0,hexagon,triangle,0,0,0,0,0,1,1,6,,,,,,,,,,,,,,,,,,,,,,,,,,,,,,,,,,,,,,,,157.09238339300282,157.09238339300282,157.09238339300282,157.09238339300282,157.09238339300282,157.09238339300282,157.09238339300282,157.09238339300282,157.09238339300282,157.09238339300282,a,11.15409897799691,10,11,0,168.27090936700188,169.7726208180029,,,,,,,,,,,,,,,,,,,,,,,,,,,,,,,,,,,,,,,,,,,,,,,,,,,,,,,,28713,2022-09-16_15h13.36.017,vts_reward_expectancy,2022.2.4,59.99656747655878,
0,1,0,0,0,0,1,0,circle,hexagon,0,0,0,0,0,2,2,4,,,,,,,,,,,,,,,,,,,,,,,,,,,,,,,,,,,,,,,,170.27302461400177,170.27302461400177,170.27302461400177,170.27302461400177,170.27302461400177,170.27302461400177,170.27302461400177,170.27302461400177,170.27302461400177,170.27302461400177,l,4.477751956997963,10,21,0,174.77817796100135,176.27988276200267,,,,,,,,,,,,,,,,,,,,,,,,,,,,,,,,,,,,,,,,,,,,,,,,,,,,,,,,28713,2022-09-16_15h13.36.017,vts_reward_expectancy,2022.2.4,59.99656747655878,
1,0,0,0,0,0,0,1,triangle,star,0,0,0,0,0,3,3,2,,,,,,,,,,,,,,,,,,,,,,,,,,,,,,,,,,,,,,,,176.7803780590002,176.7803780590002,176.7803780590002,176.7803780590002,176.7803780590002,176.7803780590002,176.7803780590002,176.7803780590002,176.7803780590002,176.7803780590002,l,8.07533657899694,1,22,0,184.87256998200246,186.37417034100145,,,,,,,,,,,,,,,,,,,,,,,,,,,,,,,,,,,,,,,,,,,,,,,,,,,,,,,,28713,2022-09-16_15h13.36.017,vts_reward_expectancy,2022.2.4,59.99656747655878,
1,0,0,0,0,1,0,0,triangle,circle,0,0,0,0,0,4,4,0,,,,,,,,,,,,,,,,,,,,,,,,,,,,,,,,,,,,,,,,186.87489965799978,186.87489965799978,186.87489965799978,186.87489965799978,186.87489965799978,186.87489965799978,186.87489965799978,186.87489965799978,186.87489965799978,186.87489965799978,a,2.3078933589968074,10,32,0,189.21068015499986,190.71233358500103,,,,,,,,,,,,,,,,,,,,,,,,,,,,,,,,,,,,,,,,,,,,,,,,,,,,,,,,28713,2022-09-16_15h13.36.017,vts_reward_expectancy,2022.2.4,59.99656747655878,
0,0,0,1,1,0,0,0,star,triangle,0,0,0,0,0,5,5,9,,,,,,,,,,,,,,,,,,,,,,,,,,,,,,,,,,,,,,,,191.21293238100043,191.21293238100043,191.21293238100043,191.21293238100043,191.21293238100043,191.21293238100043,191.21293238100043,191.21293238100043,191.21293238100043,191.21293238100043,l,11.962524398000824,1,33,0,203.1931433509999,204.69485910300136,204.69485910300136,,,,,,,,,,,,,,,,,,,,,,,,,,,,,,,,,,,,,,,,,,,,,,,,,,,,,,,28713,2022-09-16_15h13.36.017,vts_reward_expectancy,2022.2.4,59.99656747655878,
0,1,0,0,0,0,0,1,circle,star,0,0,0,0,0,6,6,5,,,,,,,,,,,,,,,,,,,,,,,,,,,,,,,,,,,,,,,,205.19512482700156,205.19512482700156,205.19512482700156,205.19512482700156,205.19512482700156,205.19512482700156,205.19512482700156,205.19512482700156,205.19512482700156,205.19512482700156,l,3.050608811998245,1,34,0,208.26503224500266,209.7667606290015,,,,,,,,,,,,,,,,,,,,,,,,,,,,,,,,,,,,,,,,,,,,,,,,,,,,,,,,28713,2022-09-16_15h13.36.017,vts_reward_expectancy,2022.2.4,59.99656747655878,
1,0,0,0,0,0,1,0,triangle,hexagon,0,0,0,0,0,7,7,1,,,,,,,,,,,,,,,,,,,,,,,,,,,,,,,,,,,,,,,,210.26737206300095,210.26737206300095,210.26737206300095,210.26737206300095,210.26737206300095,210.26737206300095,210.26737206300095,210.26737206300095,210.26737206300095,210.26737206300095,l,2.169889513999806,1,35,0,212.46973520300162,213.97149835800155,,,,,,,,,,,,,,,,,,,,,,,,,,,,,,,,,,,,,,,,,,,,,,,,,,,,,,,,28713,2022-09-16_15h13.36.017,vts_reward_expectancy,2022.2.4,59.99656747655878,
0,0,0,1,0,1,0,0,star ,circle,0,0,0,0,0,8,8,10,,,,,,,,,,,,,,,,,,,,,,,,,,,,,,,,,,,,,,,,214.4721010100002,214.4721010100002,214.4721010100002,214.4721010100002,214.4721010100002,214.4721010100002,214.4721010100002,214.4721010100002,214.4721010100002,214.4721010100002,a,2.414323801996943,1,36,0,216.90829304300132,218.40962104100254,,,,,,,,,,,,,,,,,,,,,,,,,,,,,,,,,,,,,,,,,,,,,,,,,,,,,,,,28713,2022-09-16_15h13.36.017,vts_reward_expectancy,2022.2.4,59.99656747655878,
0,1,0,0,1,0,0,0,circle,triangle,0,0,0,0,0,9,9,3,,,,,,,,,,,,,,,,,,,,,,,,,,,,,,,,,,,,,,,,218.9101480370009,218.9101480370009,218.9101480370009,218.9101480370009,218.9101480370009,218.9101480370009,218.9101480370009,218.9101480370009,218.9101480370009,218.9101480370009,a,2.336738225996669,10,46,0,221.2794294100022,222.781043985,,,,,,,,,,,,,,,,,,,,,,,,,,,,,,,,,,,,,,,,,,,,,,,,,,,,,,,,28713,2022-09-16_15h13.36.017,vts_reward_expectancy,2022.2.4,59.99656747655878,
0,0,1,0,0,0,0,1,hexagon,star,0,0,0,0,0,10,10,8,,,,,,,,,,,,,,,,,,,,,,,,,,,,,,,,,,,,,,,,223.28198411700214,223.28198411700214,223.28198411700214,223.28198411700214,223.28198411700214,223.28198411700214,223.28198411700214,223.28198411700214,223.28198411700214,223.28198411700214,a,2.4852465099975234,10,56,0,225.78436520800096,227.28641572000197,,,,,,,,,,,,,,,,,,,,,,,,,,,,,,,,,,,,,,,,,,,,,,,,,,,,,,,,28713,2022-09-16_15h13.36.017,vts_reward_expectancy,2022.2.4,59.99656747655878,
0,0,1,0,0,1,0,0,hexagon,circle,0,0,0,0,0,11,11,7,,,,,,,,,,,,,,,,,,,,,,,,,,,,,,,,,,,,,,,,227.78674304800006,227.78674304800006,227.78674304800006,227.78674304800006,227.78674304800006,227.78674304800006,227.78674304800006,227.78674304800006,227.78674304800006,227.78674304800006,l,5.428982291996363,10,66,0,233.24255161800102,234.74417044800066,,,,,,,,,,,,,,,,,,,,,,,,,,,,,,,,,,,,,,,,,,,,,,,,,,,,,,,,28713,2022-09-16_15h13.36.017,vts_reward_expectancy,2022.2.4,59.99656747655878,
0,1,0,0,1,0,0,0,circle,triangle,0,0,0,0,1,0,12,3,,,,,,,,,,,,,,,,,,,,,,,,,,,,,,,,,,,,,,,,235.2448884580008,235.2448884580008,235.2448884580008,235.2448884580008,235.2448884580008,235.2448884580008,235.2448884580008,235.2448884580008,235.2448884580008,235.2448884580008,l,7.688992028997745,10,76,0,242.95327498200277,244.45496373900096,,,,,,,,,,,,,,,,,,,,,,,,,,,,,,,,,,,,,,,,,,,,,,,,,,,,,,,,28713,2022-09-16_15h13.36.017,vts_reward_expectancy,2022.2.4,59.99656747655878,
0,1,0,0,0,0,0,1,circle,star,0,0,0,0,1,1,13,5,,,,,,,,,,,,,,,,,,,,,,,,,,,,,,,,,,,,,,,,244.95550054900013,244.95550054900013,244.95550054900013,244.95550054900013,244.95550054900013,244.95550054900013,244.95550054900013,244.95550054900013,244.95550054900013,244.95550054900013,l,3.194062798997038,1,77,0,248.1757628180021,249.67748279700027,,,,,,,,,,,,,,,,,,,,,,,,,,,,,,,,,,,,,,,,,,,,,,,,,,,,,,,,28713,2022-09-16_15h13.36.017,vts_reward_expectancy,2022.2.4,59.99656747655878,
0,1,0,0,0,0,1,0,circle,hexagon,0,0,0,0,1,2,14,4,,,,,,,,,,,,,,,,,,,,,,,,,,,,,,,,,,,,,,,,250.1781809109998,250.1781809109998,250.1781809109998,250.1781809109998,250.1781809109998,250.1781809109998,250.1781809109998,250.1781809109998,250.1781809109998,250.1781809109998,l,3.5480999759965925,1,78,0,253.74875693899958,255.25019847400108,,,,,,,,,,,,,,,,,,,,,,,,,,,,,,,,,,,,,,,,,,,,,,,,,,,,,,,,28713,2022-09-16_15h13.36.017,vts_reward_expectancy,2022.2.4,59.99656747655878,
1,0,0,0,0,0,1,0,triangle,hexagon,0,0,0,0,1,3,15,1,,,,,,,,,,,,,,,,,,,,,,,,,,,,,,,,,,,,,,,,255.75121952500194,255.75121952500194,255.75121952500194,255.75121952500194,255.75121952500194,255.75121952500194,255.75121952500194,255.75121952500194,255.75121952500194,255.75121952500194,l,2.7520941739967384,10,88,0,258.5204509790019,260.0220681960018,,,,,,,,,,,,,,,,,,,,,,,,,,,,,,,,,,,,,,,,,,,,,,,,,,,,,,,,28713,2022-09-16_15h13.36.017,vts_reward_expectancy,2022.2.4,59.99656747655878,
1,0,0,0,0,1,0,0,triangle,circle,0,0,0,0,1,4,16,0,,,,,,,,,,,,,,,,,,,,,,,,,,,,,,,,,,,,,,,,260.52266782300285,260.52266782300285,260.52266782300285,260.52266782300285,260.52266782300285,260.52266782300285,260.52266782300285,260.52266782300285,260.52266782300285,260.52266782300285,a,10.115986139997403,10,98,0,270.667564419,272.16906055500294,,,,,,,,,,,,,,,,,,,,,,,,,,,,,,,,,,,,,,,,,,,,,,,,,,,,,,,,28713,2022-09-16_15h13.36.017,vts_reward_expectancy,2022.2.4,59.99656747655878,
1,0,0,0,0,0,0,1,triangle,star,0,0,0,0,1,5,17,2,,,,,,,,,,,,,,,,,,,,,,,,,,,,,,,,,,,,,,,,272.66956315599964,272.66956315599964,272.66956315599964,272.66956315599964,272.66956315599964,272.66956315599964,272.66956315599964,272.66956315599964,272.66956315599964,272.66956315599964,a,2.5368968459988537,10,108,0,275.23917336700106,276.7407224279996,,,,,,,,,,,,,,,,,,,,,,,,,,,,,,,,,,,,,,,,,,,,,,,,,,,,,,,,28713,2022-09-16_15h13.36.017,vts_reward_expectancy,2022.2.4,59.99656747655878,
0,0,0,1,0,0,1,0,star,hexagon,0,0,0,0,1,6,18,11,,,,,,,,,,,,,,,,,,,,,,,,,,,,,,,,,,,,,,,,277.24132584499966,277.24132584499966,277.24132584499966,277.24132584499966,277.24132584499966,277.24132584499966,277.24132584499966,277.24132584499966,277.24132584499966,277.24132584499966,a,1.996415049998177,1,109,0,279.2601446100016,280.7617220070024,,,,,,,,,,,,,,,,,,,,,,,,,,,,,,,,,,,,,,,,,,,,,,,,,,,,,,,,28713,2022-09-16_15h13.36.017,vts_reward_expectancy,2022.2.4,59.99656747655878,
0,0,0,1,0,1,0,0,star ,circle,0,0,0,0,1,7,19,10,,,,,,,,,,,,,,,,,,,,,,,,,,,,,,,,,,,,,,,,281.2624044460026,281.2624044460026,281.2624044460026,281.2624044460026,281.2624044460026,281.2624044460026,281.2624044460026,281.2624044460026,281.2624044460026,281.2624044460026,a,9.295932220997202,1,110,0,290.5890357770004,292.0908829280015,,,,,,,,,,,,,,,,,,,,,,,,,,,,,,,,,,,,,,,,,,,,,,,,,,,,,,,,28713,2022-09-16_15h13.36.017,vts_reward_expectancy,2022.2.4,59.99656747655878,
0,0,1,0,0,1,0,0,hexagon,circle,0,0,0,0,1,8,20,7,,,,,,,,,,,,,,,,,,,,,,,,,,,,,,,,,,,,,,,,292.59131279800204,292.59131279800204,292.59131279800204,292.59131279800204,292.59131279800204,292.59131279800204,292.59131279800204,292.59131279800204,292.59131279800204,292.59131279800204,l,8.232105199000216,10,120,0,300.8505689090016,302.3522633900029,,,,,,,,,,,,,,,,,,,,,,,,,,,,,,,,,,,,,,,,,,,,,,,,,,,,,,,,28713,2022-09-16_15h13.36.017,vts_reward_expectancy,2022.2.4,59.99656747655878,
0,0,1,0,0,0,0,1,hexagon,star,0,0,0,0,1,9,21,8,,,,,,,,,,,,,,,,,,,,,,,,,,,,,,,,,,,,,,,,302.85263758899964,302.85263758899964,302.85263758899964,302.85263758899964,302.85263758899964,302.85263758899964,302.85263758899964,302.85263758899964,302.85263758899964,302.85263758899964,a,1.209377578998101,1,121,0,304.08754441900237,305.588963047001,,,,,,,,,,,,,,,,,,,,,,,,,,,,,,,,,,,,,,,,,,,,,,,,,,,,,,,,28713,2022-09-16_15h13.36.017,vts_reward_expectancy,2022.2.4,59.99656747655878,
0,0,1,0,1,0,0,0,hexagon,triangle,0,0,0,0,1,10,22,6,,,,,,,,,,,,,,,,,,,,,,,,,,,,,,,,,,,,,,,,306.0895416090025,306.0895416090025,306.0895416090025,306.0895416090025,306.0895416090025,306.0895416090025,306.0895416090025,306.0895416090025,306.0895416090025,306.0895416090025,a,2.9958388459963317,10,131,0,309.10953156899996,310.611166591003,,,,,,,,,,,,,,,,,,,,,,,,,,,,,,,,,,,,,,,,,,,,,,,,,,,,,,,,28713,2022-09-16_15h13.36.017,vts_reward_expectancy,2022.2.4,59.99656747655878,
0,0,0,1,1,0,0,0,star,triangle,0,0,0,0,1,11,23,9,,,,,,,,,,,,,,,,,,,,,,,,,,,,,,,,,,,,,,,,311.11195343200234,311.11195343200234,311.11195343200234,311.11195343200234,311.11195343200234,311.11195343200234,311.11195343200234,311.11195343200234,311.11195343200234,311.11195343200234,l,2.6057437999988906,1,132,0,313.74804443299945,315.2497598700029,,,,,,,,,,,,,,,,,,,,,,,,,,,,,,,,,,,,,,,,,,,,,,,,,,,,,,,,28713,2022-09-16_15h13.36.017,vts_reward_expectancy,2022.2.4,59.99656747655878,
0,0,0,1,0,0,1,0,star,hexagon,0,0,0,0,2,0,24,11,,,,,,,,,,,,,,,,,,,,,,,,,,,,,,,,,,,,,,,,315.75027374600177,315.75027374600177,315.75027374600177,315.75027374600177,315.75027374600177,315.75027374600177,315.75027374600177,315.75027374600177,315.75027374600177,315.75027374600177,a,1.4873475799977314,1,133,0,317.26876413300124,318.7706332420021,,,,,,,,,,,,,,,,,,,,,,,,,,,,,,,,,,,,,,,,,,,,,,,,,,,,,,,,28713,2022-09-16_15h13.36.017,vts_reward_expectancy,2022.2.4,59.99656747655878,
0,0,1,0,0,1,0,0,hexagon,circle,0,0,0,0,2,1,25,7,,,,,,,,,,,,,,,,,,,,,,,,,,,,,,,,,,,,,,,,319.2711842710014,319.2711842710014,319.2711842710014,319.2711842710014,319.2711842710014,319.2711842710014,319.2711842710014,319.2711842710014,319.2711842710014,319.2711842710014,l,2.8785688819953066,1,134,0,322.174127338003,323.67570507100027,,,,,,,,,,,,,,,,,,,,,,,,,,,,,,,,,,,,,,,,,,,,,,,,,,,,,,,,28713,2022-09-16_15h13.36.017,vts_reward_expectancy,2022.2.4,59.99656747655878,
0,0,0,1,0,1,0,0,star ,circle,0,0,0,0,2,2,26,10,,,,,,,,,,,,,,,,,,,,,,,,,,,,,,,,,,,,,,,,324.17645243300285,324.17645243300285,324.17645243300285,324.17645243300285,324.17645243300285,324.17645243300285,324.17645243300285,324.17645243300285,324.17645243300285,324.17645243300285,a,1.0460166399971058,1,135,0,325.24439928500215,326.74587639400124,,,,,,,,,,,,,,,,,,,,,,,,,,,,,,,,,,,,,,,,,,,,,,,,,,,,,,,,28713,2022-09-16_15h13.36.017,vts_reward_expectancy,2022.2.4,59.99656747655878,
0,0,1,0,0,0,0,1,hexagon,star,0,0,0,0,2,3,27,8,,,,,,,,,,,,,,,,,,,,,,,,,,,,,,,,,,,,,,,,327.24635518300056,327.24635518300056,327.24635518300056,327.24635518300056,327.24635518300056,327.24635518300056,327.24635518300056,327.24635518300056,327.24635518300056,327.24635518300056,a,2.51187884099636,10,145,0,329.7825691200014,331.28438396899946,,,,,,,,,,,,,,,,,,,,,,,,,,,,,,,,,,,,,,,,,,,,,,,,,,,,,,,,28713,2022-09-16_15h13.36.017,vts_reward_expectancy,2022.2.4,59.99656747655878,
0,0,1,0,1,0,0,0,hexagon,triangle,0,0,0,0,2,4,28,6,,,,,,,,,,,,,,,,,,,,,,,,,,,,,,,,,,,,,,,,331.7846986680015,331.7846986680015,331.7846986680015,331.7846986680015,331.7846986680015,331.7846986680015,331.7846986680015,331.7846986680015,331.7846986680015,331.7846986680015,a,3.3177472189963737,1,146,0,335.12176624100175,336.6233594990008,,,,,,,,,,,,,,,,,,,,,,,,,,,,,,,,,,,,,,,,,,,,,,,,,,,,,,,,28713,2022-09-16_15h13.36.017,vts_reward_expectancy,2022.2.4,59.99656747655878,
1,0,0,0,0,0,0,1,triangle,star,0,0,0,0,2,5,29,2,,,,,,,,,,,,,,,,,,,,,,,,,,,,,,,,,,,,,,,,337.1239175640003,337.1239175640003,337.1239175640003,337.1239175640003,337.1239175640003,337.1239175640003,337.1239175640003,337.1239175640003,337.1239175640003,337.1239175640003,l,1.4662197149991698,1,147,0,338.6087293900018,340.11040073500044,340.11040073500044,,,,,,,,,,,,,,,,,,,,,,,,,,,,,,,,,,,,,,,,,,,,,,,,,,,,,,,28713,2022-09-16_15h13.36.017,vts_reward_expectancy,2022.2.4,59.99656747655878,
0,1,0,0,1,0,0,0,circle,triangle,0,0,0,0,2,6,30,3,,,,,,,,,,,,,,,,,,,,,,,,,,,,,,,,,,,,,,,,340.6109683329996,340.6109683329996,340.6109683329996,340.6109683329996,340.6109683329996,340.6109683329996,340.6109683329996,340.6109683329996,340.6109683329996,340.6109683329996,a,8.754614095996658,1,148,0,349.38754004600196,350.88911095000003,,,,,,,,,,,,,,,,,,,,,,,,,,,,,,,,,,,,,,,,,,,,,,,,,,,,,,,,28713,2022-09-16_15h13.36.017,vts_reward_expectancy,2022.2.4,59.99656747655878,
0,0,0,1,1,0,0,0,star,triangle,0,0,0,0,2,7,31,9,,,,,,,,,,,,,,,,,,,,,,,,,,,,,,,,,,,,,,,,351.3896470690015,351.3896470690015,351.3896470690015,351.3896470690015,351.3896470690015,351.3896470690015,351.3896470690015,351.3896470690015,351.3896470690015,351.3896470690015,l,7.848122907998913,10,158,0,359.26485479900293,360.7667147610009,,,,,,,,,,,,,,,,,,,,,,,,,,,,,,,,,,,,,,,,,,,,,,,,,,,,,,,,28713,2022-09-16_15h13.36.017,vts_reward_expectancy,2022.2.4,59.99656747655878,
0,1,0,0,0,0,0,1,circle,star,0,0,0,0,2,8,32,5,,,,,,,,,,,,,,,,,,,,,,,,,,,,,,,,,,,,,,,,361.2672695910005,361.2672695910005,361.2672695910005,361.2672695910005,361.2672695910005,361.2672695910005,361.2672695910005,361.2672695910005,361.2672695910005,361.2672695910005,a,4.098636205999355,10,168,0,365.38837657600016,366.88991486300074,,,,,,,,,,,,,,,,,,,,,,,,,,,,,,,,,,,,,,,,,,,,,,,,,,,,,,,,28713,2022-09-16_15h13.36.017,vts_reward_expectancy,2022.2.4,59.99656747655878,
1,0,0,0,0,1,0,0,triangle,circle,0,0,0,0,2,9,33,0,,,,,,,,,,,,,,,,,,,,,,,,,,,,,,,,,,,,,,,,367.39044764100254,367.39044764100254,367.39044764100254,367.39044764100254,367.39044764100254,367.39044764100254,367.39044764100254,367.39044764100254,367.39044764100254,367.39044764100254,l,3.5268487489993277,10,178,0,370.9445819970024,372.44620345000294,,,,,,,,,,,,,,,,,,,,,,,,,,,,,,,,,,,,,,,,,,,,,,,,,,,,,,,,28713,2022-09-16_15h13.36.017,vts_reward_expectancy,2022.2.4,59.99656747655878,
1,0,0,0,0,0,1,0,triangle,hexagon,0,0,0,0,2,10,34,1,,,,,,,,,,,,,,,,,,,,,,,,,,,,,,,,,,,,,,,,372.94687373200213,372.94687373200213,372.94687373200213,372.94687373200213,372.94687373200213,372.94687373200213,372.94687373200213,372.94687373200213,372.94687373200213,372.94687373200213,l,3.4355460639962985,1,179,0,376.40060318900214,377.9024136750013,,,,,,,,,,,,,,,,,,,,,,,,,,,,,,,,,,,,,,,,,,,,,,,,,,,,,,,,28713,2022-09-16_15h13.36.017,vts_reward_expectancy,2022.2.4,59.99656747655878,
0,1,0,0,0,0,1,0,circle,hexagon,0,0,0,0,2,11,35,4,,,,,,,,,,,,,,,,,,,,,,,,,,,,,,,,,,,,,,,,378.4027516080023,378.4027516080023,378.4027516080023,378.4027516080023,378.4027516080023,378.4027516080023,378.4027516080023,378.4027516080023,378.4027516080023,378.4027516080023,a,1.5157446109988086,10,189,0,379.93778087100145,381.43956396200156,,,,,,,,,,,,,,,,,,,,,,,,,,,,,,,,,,,,,,,,,,,,,,,,,,,,,,,,28713,2022-09-16_15h13.36.017,vts_reward_expectancy,2022.2.4,59.99656747655878,
0,0,0,1,1,0,0,0,star,triangle,1,0,1,0,0,0,0,9,,,,,,,,,,,,,,,,,,,,,,,,,,,,,,,,,,,,,,,,457.2106606330017,457.2106606330017,457.2106606330017,457.2106606330017,457.2106606330017,457.2106606330017,457.2106606330017,457.2106606330017,457.2106606330017,457.2106606330017,a,13.7467420139983,1,190,1,470.9883002070019,472.4898811830026,,,,,,,,,,,,,,,,,,,,,,,,,,,,,,,,,,,,,,,,,,,,,,,,,,,,,,,,28713,2022-09-16_15h13.36.017,vts_reward_expectancy,2022.2.4,59.99656747655878,
0,0,1,0,0,0,0,1,hexagon,star,1,0,1,0,0,1,1,8,,,,,,,,,,,,,,,,,,,,,,,,,,,,,,,,,,,,,,,,472.9905128140017,472.9905128140017,472.9905128140017,472.9905128140017,472.9905128140017,472.9905128140017,472.9905128140017,472.9905128140017,472.9905128140017,472.9905128140017,l,1.3850950129963167,1,191,1,474.39201289700213,475.8933997839995,,,,,,,,,,,,,,,,,,,,,,,,,,,,,,,,,,,,,,,,,,,,,,,,,,,,,,,,28713,2022-09-16_15h13.36.017,vts_reward_expectancy,2022.2.4,59.99656747655878,
0,0,0,1,0,0,1,0,star,hexagon,1,0,1,0,0,2,2,11,,,,,,,,,,,,,,,,,,,,,,,,,,,,,,,,,,,,,,,,476.39425510500223,476.39425510500223,476.39425510500223,476.39425510500223,476.39425510500223,476.39425510500223,476.39425510500223,476.39425510500223,476.39425510500223,476.39425510500223,l,1.4038711610010068,1,192,1,477.82920705700235,479.33079609200286,,,,,,,,,,,,,,,,,,,,,,,,,,,,,,,,,,,,,,,,,,,,,,,,,,,,,,,,28713,2022-09-16_15h13.36.017,vts_reward_expectancy,2022.2.4,59.99656747655878,
1,0,0,0,0,1,0,0,triangle,circle,1,0,1,0,0,3,3,0,,,,,,,,,,,,,,,,,,,,,,,,,,,,,,,,,,,,,,,,479.83162224400076,479.83162224400076,479.83162224400076,479.83162224400076,479.83162224400076,479.83162224400076,479.83162224400076,479.83162224400076,479.83162224400076,479.83162224400076,l,0.9185839049969218,10,202,1,480.78268935600136,482.2843772430024,,,,,,,,,,,,,,,,,,,,,,,,,,,,,,,,,,,,,,,,,,,,,,,,,,,,,,,,28713,2022-09-16_15h13.36.017,vts_reward_expectancy,2022.2.4,59.99656747655878,
0,0,1,0,0,1,0,0,hexagon,circle,1,0,1,0,0,4,4,7,,,,,,,,,,,,,,,,,,,,,,,,,,,,,,,,,,,,,,,,482.7848144340023,482.7848144340023,482.7848144340023,482.7848144340023,482.7848144340023,482.7848144340023,482.7848144340023,482.7848144340023,482.7848144340023,482.7848144340023,l,0.9023481199983507,10,212,1,483.71896384700085,485.2205842930016,,,,,,,,,,,,,,,,,,,,,,,,,,,,,,,,,,,,,,,,,,,,,,,,,,,,,,,,28713,2022-09-16_15h13.36.017,vts_reward_expectancy,2022.2.4,59.99656747655878,
0,1,0,0,1,0,0,0,circle,triangle,1,0,1,0,0,5,5,3,,,,,,,,,,,,,,,,,,,,,,,,,,,,,,,,,,,,,,,,485.721161700003,485.721161700003,485.721161700003,485.721161700003,485.721161700003,485.721161700003,485.721161700003,485.721161700003,485.721161700003,485.721161700003,a,1.035918772999139,10,222,1,486.78934251600003,488.2906944640017,,,,,,,,,,,,,,,,,,,,,,,,,,,,,,,,,,,,,,,,,,,,,,,,,,,,,,,,28713,2022-09-16_15h13.36.017,vts_reward_expectancy,2022.2.4,59.99656747655878,
0,0,1,0,1,0,0,0,hexagon,triangle,1,0,1,0,0,6,6,6,,,,,,,,,,,,,,,,,,,,,,,,,,,,,,,,,,,,,,,,488.7913030840027,488.7913030840027,488.7913030840027,488.7913030840027,488.7913030840027,488.7913030840027,488.7913030840027,488.7913030840027,488.7913030840027,488.7913030840027,l,3.903737648997776,1,223,1,492.7122482140003,494.21389909100253,,,,,,,,,,,,,,,,,,,,,,,,,,,,,,,,,,,,,,,,,,,,,,,,,,,,,,,,28713,2022-09-16_15h13.36.017,vts_reward_expectancy,2022.2.4,59.99656747655878,
0,1,0,0,0,0,0,1,circle,star,1,0,1,0,0,7,7,5,,,,,,,,,,,,,,,,,,,,,,,,,,,,,,,,,,,,,,,,494.7142813190003,494.7142813190003,494.7142813190003,494.7142813190003,494.7142813190003,494.7142813190003,494.7142813190003,494.7142813190003,494.7142813190003,494.7142813190003,l,1.2110357669953373,10,233,1,495.94900542899995,497.4508953060031,,,,,,,,,,,,,,,,,,,,,,,,,,,,,,,,,,,,,,,,,,,,,,,,,,,,,,,,28713,2022-09-16_15h13.36.017,vts_reward_expectancy,2022.2.4,59.99656747655878,
0,1,0,0,0,0,1,0,circle,hexagon,1,0,1,0,0,8,8,4,,,,,,,,,,,,,,,,,,,,,,,,,,,,,,,,,,,,,,,,497.95130142900234,497.95130142900234,497.95130142900234,497.95130142900234,497.95130142900234,497.95130142900234,497.95130142900234,497.95130142900234,497.95130142900234,497.95130142900234,a,1.6943282180000097,10,243,1,499.66982775400174,501.1714784750002,,,,,,,,,,,,,,,,,,,,,,,,,,,,,,,,,,,,,,,,,,,,,,,,,,,,,,,,28713,2022-09-16_15h13.36.017,vts_reward_expectancy,2022.2.4,59.99656747655878,
1,0,0,0,0,0,1,0,triangle,hexagon,1,0,1,0,0,9,9,1,,,,,,,,,,,,,,,,,,,,,,,,,,,,,,,,,,,,,,,,501.67211611600214,501.67211611600214,501.67211611600214,501.67211611600214,501.67211611600214,501.67211611600214,501.67211611600214,501.67211611600214,501.67211611600214,501.67211611600214,a,1.206401408995589,10,253,1,502.90666483899986,504.40824800300106,,,,,,,,,,,,,,,,,,,,,,,,,,,,,,,,,,,,,,,,,,,,,,,,,,,,,,,,28713,2022-09-16_15h13.36.017,vts_reward_expectancy,2022.2.4,59.99656747655878,
0,0,0,1,0,1,0,0,star ,circle,1,0,1,0,0,10,10,10,,,,,,,,,,,,,,,,,,,,,,,,,,,,,,,,,,,,,,,,504.9088470580027,504.9088470580027,504.9088470580027,504.9088470580027,504.9088470580027,504.9088470580027,504.9088470580027,504.9088470580027,504.9088470580027,504.9088470580027,l,1.1294253880005272,10,263,1,506.0601934639999,507.5618315240026,,,,,,,,,,,,,,,,,,,,,,,,,,,,,,,,,,,,,,,,,,,,,,,,,,,,,,,,28713,2022-09-16_15h13.36.017,vts_reward_expectancy,2022.2.4,59.99656747655878,
1,0,0,0,0,0,0,1,triangle,star,1,0,1,0,0,11,11,2,,,,,,,,,,,,,,,,,,,,,,,,,,,,,,,,,,,,,,,,508.0623455970017,508.0623455970017,508.0623455970017,508.0623455970017,508.0623455970017,508.0623455970017,508.0623455970017,508.0623455970017,508.0623455970017,508.0623455970017,l,2.5116808339989802,10,273,1,510.59853959900283,512.1003491120027,,,,,,,,,,,,,,,,,,,,,,,,,,,,,,,,,,,,,,,,,,,,,,,,,,,,,,,,28713,2022-09-16_15h13.36.017,vts_reward_expectancy,2022.2.4,59.99656747655878,
0,0,1,0,0,0,0,1,hexagon,star,1,0,1,0,1,0,12,8,,,,,,,,,,,,,,,,,,,,,,,,,,,,,,,,,,,,,,,,512.6008229790023,512.6008229790023,512.6008229790023,512.6008229790023,512.6008229790023,512.6008229790023,512.6008229790023,512.6008229790023,512.6008229790023,512.6008229790023,a,1.1969459449974238,1,274,1,513.818649410001,515.320351084003,,,,,,,,,,,,,,,,,,,,,,,,,,,,,,,,,,,,,,,,,,,,,,,,,,,,,,,,28713,2022-09-16_15h13.36.017,vts_reward_expectancy,2022.2.4,59.99656747655878,
0,1,0,0,0,0,0,1,circle,star,1,0,1,0,1,1,13,5,,,,,,,,,,,,,,,,,,,,,,,,,,,,,,,,,,,,,,,,515.8209071260026,515.8209071260026,515.8209071260026,515.8209071260026,515.8209071260026,515.8209071260026,515.8209071260026,515.8209071260026,515.8209071260026,515.8209071260026,l,0.5849844039985328,1,275,1,516.438373377001,517.9399172140002,,,,,,,,,,,,,,,,,,,,,,,,,,,,,,,,,,,,,,,,,,,,,,,,,,,,,,,,28713,2022-09-16_15h13.36.017,vts_reward_expectancy,2022.2.4,59.99656747655878,
0,0,1,0,1,0,0,0,hexagon,triangle,1,0,1,0,1,2,14,6,,,,,,,,,,,,,,,,,,,,,,,,,,,,,,,,,,,,,,,,518.4404667400013,518.4404667400013,518.4404667400013,518.4404667400013,518.4404667400013,518.4404667400013,518.4404667400013,518.4404667400013,518.4404667400013,518.4404667400013,l,0.9021470499974384,1,276,1,519.3749943760013,520.8766645350006,,,,,,,,,,,,,,,,,,,,,,,,,,,,,,,,,,,,,,,,,,,,,,,,,,,,,,,,28713,2022-09-16_15h13.36.017,vts_reward_expectancy,2022.2.4,59.99656747655878,
0,0,1,0,0,1,0,0,hexagon,circle,1,0,1,0,1,3,15,7,,,,,,,,,,,,,,,,,,,,,,,,,,,,,,,,,,,,,,,,521.376111556001,521.376111556001,521.376111556001,521.376111556001,521.376111556001,521.376111556001,521.376111556001,521.376111556001,521.376111556001,521.376111556001,l,0.7190443999970739,10,286,1,522.1112487120008,523.6131531950014,,,,,,,,,,,,,,,,,,,,,,,,,,,,,,,,,,,,,,,,,,,,,,,,,,,,,,,,28713,2022-09-16_15h13.36.017,vts_reward_expectancy,2022.2.4,59.99656747655878,
0,0,0,1,0,1,0,0,star ,circle,1,0,1,0,1,4,16,10,,,,,,,,,,,,,,,,,,,,,,,,,,,,,,,,,,,,,,,,524.1136010530026,524.1136010530026,524.1136010530026,524.1136010530026,524.1136010530026,524.1136010530026,524.1136010530026,524.1136010530026,524.1136010530026,524.1136010530026,l,0.692653263995453,10,296,1,524.8309257450019,526.3327698130015,,,,,,,,,,,,,,,,,,,,,,,,,,,,,,,,,,,,,,,,,,,,,,,,,,,,,,,,28713,2022-09-16_15h13.36.017,vts_reward_expectancy,2022.2.4,59.99656747655878,
0,0,0,1,1,0,0,0,star,triangle,1,0,1,0,1,5,17,9,,,,,,,,,,,,,,,,,,,,,,,,,,,,,,,,,,,,,,,,526.8331076120012,526.8331076120012,526.8331076120012,526.8331076120012,526.8331076120012,526.8331076120012,526.8331076120012,526.8331076120012,526.8331076120012,526.8331076120012,a,0.6925645079973037,10,306,1,527.5505258020021,529.0528214500009,,,,,,,,,,,,,,,,,,,,,,,,,,,,,,,,,,,,,,,,,,,,,,,,,,,,,,,,28713,2022-09-16_15h13.36.017,vts_reward_expectancy,2022.2.4,59.99656747655878,
1,0,0,0,0,0,1,0,triangle,hexagon,1,0,1,0,1,6,18,1,,,,,,,,,,,,,,,,,,,,,,,,,,,,,,,,,,,,,,,,529.553060557002,529.553060557002,529.553060557002,529.553060557002,529.553060557002,529.553060557002,529.553060557002,529.553060557002,529.553060557002,529.553060557002,a,2.308836539996264,10,316,1,531.8888026090026,533.3906289590013,,,,,,,,,,,,,,,,,,,,,,,,,,,,,,,,,,,,,,,,,,,,,,,,,,,,,,,,28713,2022-09-16_15h13.36.017,vts_reward_expectancy,2022.2.4,59.99656747655878,
0,1,0,0,0,0,1,0,circle,hexagon,1,0,1,0,1,7,19,4,,,,,,,,,,,,,,,,,,,,,,,,,,,,,,,,,,,,,,,,533.8911117730022,533.8911117730022,533.8911117730022,533.8911117730022,533.8911117730022,533.8911117730022,533.8911117730022,533.8911117730022,533.8911117730022,533.8911117730022,a,3.122104092999507,10,326,1,537.0444012120024,538.5462655200026,,,,,,,,,,,,,,,,,,,,,,,,,,,,,,,,,,,,,,,,,,,,,,,,,,,,,,,,28713,2022-09-16_15h13.36.017,vts_reward_expectancy,2022.2.4,59.99656747655878,
0,1,0,0,1,0,0,0,circle,triangle,1,0,1,0,1,8,20,3,,,,,,,,,,,,,,,,,,,,,,,,,,,,,,,,,,,,,,,,539.046753976003,539.046753976003,539.046753976003,539.046753976003,539.046753976003,539.046753976003,539.046753976003,539.046753976003,539.046753976003,539.046753976003,a,0.7028629139967961,10,336,1,539.7808292200025,541.2827355879999,,,,,,,,,,,,,,,,,,,,,,,,,,,,,,,,,,,,,,,,,,,,,,,,,,,,,,,,28713,2022-09-16_15h13.36.017,vts_reward_expectancy,2022.2.4,59.99656747655878,
1,0,0,0,0,1,0,0,triangle,circle,1,0,1,0,1,9,21,0,,,,,,,,,,,,,,,,,,,,,,,,,,,,,,,,,,,,,,,,541.7832482520025,541.7832482520025,541.7832482520025,541.7832482520025,541.7832482520025,541.7832482520025,541.7832482520025,541.7832482520025,541.7832482520025,541.7832482520025,l,0.6698474359982356,1,337,1,542.483785761,543.9855133630008,,,,,,,,,,,,,,,,,,,,,,,,,,,,,,,,,,,,,,,,,,,,,,,,,,,,,,,,28713,2022-09-16_15h13.36.017,vts_reward_expectancy,2022.2.4,59.99656747655878,
0,0,0,1,0,0,1,0,star,hexagon,1,0,1,0,1,10,22,11,,,,,,,,,,,,,,,,,,,,,,,,,,,,,,,,,,,,,,,,544.4859713740007,544.4859713740007,544.4859713740007,544.4859713740007,544.4859713740007,544.4859713740007,544.4859713740007,544.4859713740007,544.4859713740007,544.4859713740007,a,1.0013944239981356,10,347,1,545.5037931799998,547.0054669080018,,,,,,,,,,,,,,,,,,,,,,,,,,,,,,,,,,,,,,,,,,,,,,,,,,,,,,,,28713,2022-09-16_15h13.36.017,vts_reward_expectancy,2022.2.4,59.99656747655878,
1,0,0,0,0,0,0,1,triangle,star,1,0,1,0,1,11,23,2,,,,,,,,,,,,,,,,,,,,,,,,,,,,,,,,,,,,,,,,547.5060025439998,547.5060025439998,547.5060025439998,547.5060025439998,547.5060025439998,547.5060025439998,547.5060025439998,547.5060025439998,547.5060025439998,547.5060025439998,l,0.8440549919978366,1,348,1,548.373677132,549.8753757650011,,,,,,,,,,,,,,,,,,,,,,,,,,,,,,,,,,,,,,,,,,,,,,,,,,,,,,,,28713,2022-09-16_15h13.36.017,vts_reward_expectancy,2022.2.4,59.99656747655878,
0,0,0,1,0,1,0,0,star ,circle,1,0,1,0,2,0,24,10,,,,,,,,,,,,,,,,,,,,,,,,,,,,,,,,,,,,,,,,550.376168103001,550.376168103001,550.376168103001,550.376168103001,550.376168103001,550.376168103001,550.376168103001,550.376168103001,550.376168103001,550.376168103001,l,0.9735064489977958,10,358,1,551.3769762789998,552.878550974001,,,,,,,,,,,,,,,,,,,,,,,,,,,,,,,,,,,,,,,,,,,,,,,,,,,,,,,,28713,2022-09-16_15h13.36.017,vts_reward_expectancy,2022.2.4,59.99656747655878,
0,0,1,0,1,0,0,0,hexagon,triangle,1,0,1,0,2,1,25,6,,,,,,,,,,,,,,,,,,,,,,,,,,,,,,,,,,,,,,,,553.3778927500025,553.3778927500025,553.3778927500025,553.3778927500025,553.3778927500025,553.3778927500025,553.3778927500025,553.3778927500025,553.3778927500025,553.3778927500025,a,3.421331328998349,1,359,1,556.8161501760005,558.3177781280028,,,,,,,,,,,,,,,,,,,,,,,,,,,,,,,,,,,,,,,,,,,,,,,,,,,,,,,,28713,2022-09-16_15h13.36.017,vts_reward_expectancy,2022.2.4,59.99656747655878,
1,0,0,0,0,0,1,0,triangle,hexagon,1,0,1,0,2,2,26,1,,,,,,,,,,,,,,,,,,,,,,,,,,,,,,,,,,,,,,,,558.8183635740024,558.8183635740024,558.8183635740024,558.8183635740024,558.8183635740024,558.8183635740024,558.8183635740024,558.8183635740024,558.8183635740024,558.8183635740024,l,5.579768553998292,1,360,1,564.4246923770006,565.9263120280011,,,,,,,,,,,,,,,,,,,,,,,,,,,,,,,,,,,,,,,,,,,,,,,,,,,,,,,,28713,2022-09-16_15h13.36.017,vts_reward_expectancy,2022.2.4,59.99656747655878,
0,0,1,0,0,1,0,0,hexagon,circle,1,0,1,0,2,3,27,7,,,,,,,,,,,,,,,,,,,,,,,,,,,,,,,,,,,,,,,,566.4269637860016,566.4269637860016,566.4269637860016,566.4269637860016,566.4269637860016,566.4269637860016,566.4269637860016,566.4269637860016,566.4269637860016,566.4269637860016,l,0.8423614629973599,1,361,1,567.2948066320023,568.7964628940026,,,,,,,,,,,,,,,,,,,,,,,,,,,,,,,,,,,,,,,,,,,,,,,,,,,,,,,,28713,2022-09-16_15h13.36.017,vts_reward_expectancy,2022.2.4,59.99656747655878,
0,1,0,0,1,0,0,0,circle,triangle,1,0,1,0,2,4,28,3,,,,,,,,,,,,,,,,,,,,,,,,,,,,,,,,,,,,,,,,569.2966371050024,569.2966371050024,569.2966371050024,569.2966371050024,569.2966371050024,569.2966371050024,569.2966371050024,569.2966371050024,569.2966371050024,569.2966371050024,a,1.2935691709972161,10,371,1,570.6150367260016,572.1165770330008,,,,,,,,,,,,,,,,,,,,,,,,,,,,,,,,,,,,,,,,,,,,,,,,,,,,,,,,28713,2022-09-16_15h13.36.017,vts_reward_expectancy,2022.2.4,59.99656747655878,
0,0,0,1,1,0,0,0,star,triangle,1,0,1,0,2,5,29,9,,,,,,,,,,,,,,,,,,,,,,,,,,,,,,,,,,,,,,,,572.617091221,572.617091221,572.617091221,572.617091221,572.617091221,572.617091221,572.617091221,572.617091221,572.617091221,572.617091221,a,1.8531969849973393,1,372,1,574.5027908100019,576.0044097930004,,,,,,,,,,,,,,,,,,,,,,,,,,,,,,,,,,,,,,,,,,,,,,,,,,,,,,,,28713,2022-09-16_15h13.36.017,vts_reward_expectancy,2022.2.4,59.99656747655878,
0,1,0,0,0,0,0,1,circle,star,1,0,1,0,2,6,30,5,,,,,,,,,,,,,,,,,,,,,,,,,,,,,,,,,,,,,,,,576.5051524600021,576.5051524600021,576.5051524600021,576.5051524600021,576.5051524600021,576.5051524600021,576.5051524600021,576.5051524600021,576.5051524600021,576.5051524600021,a,1.334323115996085,10,382,1,577.8560954170025,579.3576435450013,,,,,,,,,,,,,,,,,,,,,,,,,,,,,,,,,,,,,,,,,,,,,,,,,,,,,,,,28713,2022-09-16_15h13.36.017,vts_reward_expectancy,2022.2.4,59.99656747655878,
0,1,0,0,0,0,1,0,circle,hexagon,1,0,1,0,2,7,31,4,,,,,,,,,,,,,,,,,,,,,,,,,,,,,,,,,,,,,,,,579.8580885370029,579.8580885370029,579.8580885370029,579.8580885370029,579.8580885370029,579.8580885370029,579.8580885370029,579.8580885370029,579.8580885370029,579.8580885370029,a,0.9166684469964821,10,392,1,580.7927950410012,582.2943530140001,,,,,,,,,,,,,,,,,,,,,,,,,,,,,,,,,,,,,,,,,,,,,,,,,,,,,,,,28713,2022-09-16_15h13.36.017,vts_reward_expectancy,2022.2.4,59.99656747655878,
0,0,0,1,0,0,1,0,star,hexagon,1,0,1,0,2,8,32,11,,,,,,,,,,,,,,,,,,,,,,,,,,,,,,,,,,,,,,,,582.7948986090014,582.7948986090014,582.7948986090014,582.7948986090014,582.7948986090014,582.7948986090014,582.7948986090014,582.7948986090014,582.7948986090014,582.7948986090014,a,2.3544556409979123,1,393,1,585.1811368020026,586.6824923280001,,,,,,,,,,,,,,,,,,,,,,,,,,,,,,,,,,,,,,,,,,,,,,,,,,,,,,,,28713,2022-09-16_15h13.36.017,vts_reward_expectancy,2022.2.4,59.99656747655878,
1,0,0,0,0,0,0,1,triangle,star,1,0,1,0,2,9,33,2,,,,,,,,,,,,,,,,,,,,,,,,,,,,,,,,,,,,,,,,587.1830682950022,587.1830682950022,587.1830682950022,587.1830682950022,587.1830682950022,587.1830682950022,587.1830682950022,587.1830682950022,587.1830682950022,587.1830682950022,l,1.4551231890000054,1,394,1,588.6678854490019,590.1696592860026,,,,,,,,,,,,,,,,,,,,,,,,,,,,,,,,,,,,,,,,,,,,,,,,,,,,,,,,28713,2022-09-16_15h13.36.017,vts_reward_expectancy,2022.2.4,59.99656747655878,
0,0,1,0,0,0,0,1,hexagon,star,1,0,1,0,2,10,34,8,,,,,,,,,,,,,,,,,,,,,,,,,,,,,,,,,,,,,,,,590.6701300460008,590.6701300460008,590.6701300460008,590.6701300460008,590.6701300460008,590.6701300460008,590.6701300460008,590.6701300460008,590.6701300460008,590.6701300460008,l,2.2399527179950383,1,395,1,592.939423693002,594.4411744050012,,,,,,,,,,,,,,,,,,,,,,,,,,,,,,,,,,,,,,,,,,,,,,,,,,,,,,,,28713,2022-09-16_15h13.36.017,vts_reward_expectancy,2022.2.4,59.99656747655878,
1,0,0,0,0,1,0,0,triangle,circle,1,0,1,0,2,11,35,0,,,,,,,,,,,,,,,,,,,,,,,,,,,,,,,,,,,,,,,,594.9416788500021,594.9416788500021,594.9416788500021,594.9416788500021,594.9416788500021,594.9416788500021,594.9416788500021,594.9416788500021,594.9416788500021,594.9416788500021,l,2.7277469069995277,10,405,1,597.6947390860005,599.1963026440026,,,,,,,,,,,,,,,,,,,,,,,,,,,,,,,,,,,,,,,,,,,,,,,,,,,,,,,,28713,2022-09-16_15h13.36.017,vts_reward_expectancy,2022.2.4,59.99656747655878,
0,1,0,0,0,0,1,0,circle,hexagon,2,0,2,0,0,0,0,4,,,,,,,,,,,,,,,,,,,,,,,,,,,,,,,,,,,,,,,,642.632836277,642.632836277,642.632836277,642.632836277,642.632836277,642.632836277,642.632836277,642.632836277,642.632836277,642.632836277,a,2.79808585599676,10,415,2,645.4474260360003,646.9492707690006,646.9492707690006,,,,,,,,,,,,,,,,,,,,,,,,,,,,,,,,,,,,,,,,,,,,,,,,,,,,,,,28713,2022-09-16_15h13.36.017,vts_reward_expectancy,2022.2.4,59.99656747655878,
1,0,0,0,0,0,0,1,triangle,star,2,0,2,0,0,1,1,2,,,,,,,,,,,,,,,,,,,,,,,,,,,,,,,,,,,,,,,,647.4495988790004,647.4495988790004,647.4495988790004,647.4495988790004,647.4495988790004,647.4495988790004,647.4495988790004,647.4495988790004,647.4495988790004,647.4495988790004,a,2.2534791639991454,1,416,2,649.735388076002,651.2371137200025,,,,,,,,,,,,,,,,,,,,,,,,,,,,,,,,,,,,,,,,,,,,,,,,,,,,,,,,28713,2022-09-16_15h13.36.017,vts_reward_expectancy,2022.2.4,59.99656747655878,
0,0,1,0,0,0,0,1,hexagon,star,2,0,2,0,0,2,2,8,,,,,,,,,,,,,,,,,,,,,,,,,,,,,,,,,,,,,,,,651.737599154003,651.737599154003,651.737599154003,651.737599154003,651.737599154003,651.737599154003,651.737599154003,651.737599154003,651.737599154003,651.737599154003,a,1.8440970119954727,1,417,2,653.6067323710013,655.1083239100008,,,,,,,,,,,,,,,,,,,,,,,,,,,,,,,,,,,,,,,,,,,,,,,,,,,,,,,,28713,2022-09-16_15h13.36.017,vts_reward_expectancy,2022.2.4,59.99656747655878,
1,0,0,0,0,1,0,0,triangle,circle,2,0,2,0,0,3,3,0,,,,,,,,,,,,,,,,,,,,,,,,,,,,,,,,,,,,,,,,655.608603380002,655.608603380002,655.608603380002,655.608603380002,655.608603380002,655.608603380002,655.608603380002,655.608603380002,655.608603380002,655.608603380002,l,1.0778707549980027,1,418,2,656.7097793009998,658.2113699180009,,,,,,,,,,,,,,,,,,,,,,,,,,,,,,,,,,,,,,,,,,,,,,,,,,,,,,,,28713,2022-09-16_15h13.36.017,vts_reward_expectancy,2022.2.4,59.99656747655878,
0,1,0,0,0,0,0,1,circle,star,2,0,2,0,0,4,4,5,,,,,,,,,,,,,,,,,,,,,,,,,,,,,,,,,,,,,,,,658.7117729100028,658.7117729100028,658.7117729100028,658.7117729100028,658.7117729100028,658.7117729100028,658.7117729100028,658.7117729100028,658.7117729100028,658.7117729100028,a,1.1426897999990615,10,428,2,659.879895584003,661.3815098710002,,,,,,,,,,,,,,,,,,,,,,,,,,,,,,,,,,,,,,,,,,,,,,,,,,,,,,,,28713,2022-09-16_15h13.36.017,vts_reward_expectancy,2022.2.4,59.99656747655878,
0,1,0,0,1,0,0,0,circle,triangle,2,0,2,0,0,5,5,3,,,,,,,,,,,,,,,,,,,,,,,,,,,,,,,,,,,,,,,,661.8819951730002,661.8819951730002,661.8819951730002,661.8819951730002,661.8819951730002,661.8819951730002,661.8819951730002,661.8819951730002,661.8819951730002,661.8819951730002,a,1.9877741950003838,10,438,2,663.9009299160025,665.4026689500024,,,,,,,,,,,,,,,,,,,,,,,,,,,,,,,,,,,,,,,,,,,,,,,,,,,,,,,,28713,2022-09-16_15h13.36.017,vts_reward_expectancy,2022.2.4,59.99656747655878,
0,0,0,1,1,0,0,0,star,triangle,2,0,2,0,0,6,6,9,,,,,,,,,,,,,,,,,,,,,,,,,,,,,,,,,,,,,,,,665.9031746969995,665.9031746969995,665.9031746969995,665.9031746969995,665.9031746969995,665.9031746969995,665.9031746969995,665.9031746969995,665.9031746969995,665.9031746969995,l,1.669987470999331,1,439,2,667.6050212949995,669.1068489530007,,,,,,,,,,,,,,,,,,,,,,,,,,,,,,,,,,,,,,,,,,,,,,,,,,,,,,,,28713,2022-09-16_15h13.36.017,vts_reward_expectancy,2022.2.4,59.99656747655878,
0,0,0,1,0,1,0,0,star ,circle,2,0,2,0,0,7,7,10,,,,,,,,,,,,,,,,,,,,,,,,,,,,,,,,,,,,,,,,669.607338347003,669.607338347003,669.607338347003,669.607338347003,669.607338347003,669.607338347003,669.607338347003,669.607338347003,669.607338347003,669.607338347003,l,1.0632074429959175,10,449,2,670.6917291470018,672.1934308650016,,,,,,,,,,,,,,,,,,,,,,,,,,,,,,,,,,,,,,,,,,,,,,,,,,,,,,,,28713,2022-09-16_15h13.36.017,vts_reward_expectancy,2022.2.4,59.99656747655878,
0,0,0,1,0,0,1,0,star,hexagon,2,0,2,0,0,8,8,11,,,,,,,,,,,,,,,,,,,,,,,,,,,,,,,,,,,,,,,,672.6941544530018,672.6941544530018,672.6941544530018,672.6941544530018,672.6941544530018,672.6941544530018,672.6941544530018,672.6941544530018,672.6941544530018,672.6941544530018,l,9.439417914996739,1,450,2,682.1545054180024,683.656189485002,,,,,,,,,,,,,,,,,,,,,,,,,,,,,,,,,,,,,,,,,,,,,,,,,,,,,,,,28713,2022-09-16_15h13.36.017,vts_reward_expectancy,2022.2.4,59.99656747655878,
1,0,0,0,0,0,1,0,triangle,hexagon,2,0,2,0,0,9,9,1,,,,,,,,,,,,,,,,,,,,,,,,,,,,,,,,,,,,,,,,684.1567472230017,684.1567472230017,684.1567472230017,684.1567472230017,684.1567472230017,684.1567472230017,684.1567472230017,684.1567472230017,684.1567472230017,684.1567472230017,l,2.3211753319992567,1,451,2,686.509388155002,688.0109623980024,,,,,,,,,,,,,,,,,,,,,,,,,,,,,,,,,,,,,,,,,,,,,,,,,,,,,,,,28713,2022-09-16_15h13.36.017,vts_reward_expectancy,2022.2.4,59.99656747655878,
0,0,1,0,1,0,0,0,hexagon,triangle,2,0,2,0,0,10,10,6,,,,,,,,,,,,,,,,,,,,,,,,,,,,,,,,,,,,,,,,688.5115999469999,688.5115999469999,688.5115999469999,688.5115999469999,688.5115999469999,688.5115999469999,688.5115999469999,688.5115999469999,688.5115999469999,688.5115999469999,a,1.3508877039967047,1,452,2,689.8792694309996,691.3813121750027,,,,,,,,,,,,,,,,,,,,,,,,,,,,,,,,,,,,,,,,,,,,,,,,,,,,,,,,28713,2022-09-16_15h13.36.017,vts_reward_expectancy,2022.2.4,59.99656747655878,
0,0,1,0,0,1,0,0,hexagon,circle,2,0,2,0,0,11,11,7,,,,,,,,,,,,,,,,,,,,,,,,,,,,,,,,,,,,,,,,691.8820308329996,691.8820308329996,691.8820308329996,691.8820308329996,691.8820308329996,691.8820308329996,691.8820308329996,691.8820308329996,691.8820308329996,691.8820308329996,l,0.6597684479966119,10,462,2,692.5661320660001,694.0679031800028,,,,,,,,,,,,,,,,,,,,,,,,,,,,,,,,,,,,,,,,,,,,,,,,,,,,,,,,28713,2022-09-16_15h13.36.017,vts_reward_expectancy,2022.2.4,59.99656747655878,
0,1,0,0,1,0,0,0,circle,triangle,2,0,2,0,1,0,12,3,,,,,,,,,,,,,,,,,,,,,,,,,,,,,,,,,,,,,,,,694.5681254219999,694.5681254219999,694.5681254219999,694.5681254219999,694.5681254219999,694.5681254219999,694.5681254219999,694.5681254219999,694.5681254219999,694.5681254219999,a,1.5972192679982982,10,472,2,696.1866039820015,697.6885099700012,,,,,,,,,,,,,,,,,,,,,,,,,,,,,,,,,,,,,,,,,,,,,,,,,,,,,,,,28713,2022-09-16_15h13.36.017,vts_reward_expectancy,2022.2.4,59.99656747655878,
0,0,1,0,0,0,0,1,hexagon,star,2,0,2,0,1,1,13,8,,,,,,,,,,,,,,,,,,,,,,,,,,,,,,,,,,,,,,,,698.1888100700016,698.1888100700016,698.1888100700016,698.1888100700016,698.1888100700016,698.1888100700016,698.1888100700016,698.1888100700016,698.1888100700016,698.1888100700016,l,4.0648885399969,1,473,2,702.276931417,703.7781934960003,,,,,,,,,,,,,,,,,,,,,,,,,,,,,,,,,,,,,,,,,,,,,,,,,,,,,,,,28713,2022-09-16_15h13.36.017,vts_reward_expectancy,2022.2.4,59.99656747655878,
1,0,0,0,0,1,0,0,triangle,circle,2,0,2,0,1,2,14,0,,,,,,,,,,,,,,,,,,,,,,,,,,,,,,,,,,,,,,,,704.278951389002,704.278951389002,704.278951389002,704.278951389002,704.278951389002,704.278951389002,704.278951389002,704.278951389002,704.278951389002,704.278951389002,l,0.7104529540010844,1,474,2,705.012996464,706.5148440490011,,,,,,,,,,,,,,,,,,,,,,,,,,,,,,,,,,,,,,,,,,,,,,,,,,,,,,,,28713,2022-09-16_15h13.36.017,vts_reward_expectancy,2022.2.4,59.99656747655878,
0,1,0,0,0,0,0,1,circle,star,2,0,2,0,1,3,15,5,,,,,,,,,,,,,,,,,,,,,,,,,,,,,,,,,,,,,,,,707.0152287460005,707.0152287460005,707.0152287460005,707.0152287460005,707.0152287460005,707.0152287460005,707.0152287460005,707.0152287460005,707.0152287460005,707.0152287460005,a,2.278413505999197,10,484,2,709.3178002140012,710.819442531003,,,,,,,,,,,,,,,,,,,,,,,,,,,,,,,,,,,,,,,,,,,,,,,,,,,,,,,,28713,2022-09-16_15h13.36.017,vts_reward_expectancy,2022.2.4,59.99656747655878,
0,0,0,1,1,0,0,0,star,triangle,2,0,2,0,1,4,16,9,,,,,,,,,,,,,,,,,,,,,,,,,,,,,,,,,,,,,,,,711.3198517840028,711.3198517840028,711.3198517840028,711.3198517840028,711.3198517840028,711.3198517840028,711.3198517840028,711.3198517840028,711.3198517840028,711.3198517840028,a,1.966321464995417,1,485,2,713.3054802309998,714.8073353399996,,,,,,,,,,,,,,,,,,,,,,,,,,,,,,,,,,,,,,,,,,,,,,,,,,,,,,,,28713,2022-09-16_15h13.36.017,vts_reward_expectancy,2022.2.4,59.99656747655878,
0,0,0,1,0,0,1,0,star,hexagon,2,0,2,0,1,5,17,11,,,,,,,,,,,,,,,,,,,,,,,,,,,,,,,,,,,,,,,,715.3078396840028,715.3078396840028,715.3078396840028,715.3078396840028,715.3078396840028,715.3078396840028,715.3078396840028,715.3078396840028,715.3078396840028,715.3078396840028,l,1.0354900269994687,1,486,2,716.3754394530006,717.8771108740002,,,,,,,,,,,,,,,,,,,,,,,,,,,,,,,,,,,,,,,,,,,,,,,,,,,,,,,,28713,2022-09-16_15h13.36.017,vts_reward_expectancy,2022.2.4,59.99656747655878,
0,1,0,0,0,0,1,0,circle,hexagon,2,0,2,0,1,6,18,4,,,,,,,,,,,,,,,,,,,,,,,,,,,,,,,,,,,,,,,,718.3776188880001,718.3776188880001,718.3776188880001,718.3776188880001,718.3776188880001,718.3776188880001,718.3776188880001,718.3776188880001,718.3776188880001,718.3776188880001,a,0.48496327699831454,1,487,2,718.8951940330007,720.396719170003,,,,,,,,,,,,,,,,,,,,,,,,,,,,,,,,,,,,,,,,,,,,,,,,,,,,,,,,28713,2022-09-16_15h13.36.017,vts_reward_expectancy,2022.2.4,59.99656747655878,
1,0,0,0,0,0,1,0,triangle,hexagon,2,0,2,0,1,7,19,1,,,,,,,,,,,,,,,,,,,,,,,,,,,,,,,,,,,,,,,,720.897537142002,720.897537142002,720.897537142002,720.897537142002,720.897537142002,720.897537142002,720.897537142002,720.897537142002,720.897537142002,720.897537142002,l,1.764685392001411,10,497,2,722.6826629509997,724.184202460001,,,,,,,,,,,,,,,,,,,,,,,,,,,,,,,,,,,,,,,,,,,,,,,,,,,,,,,,28713,2022-09-16_15h13.36.017,vts_reward_expectancy,2022.2.4,59.99656747655878,
0,0,0,1,0,1,0,0,star ,circle,2,0,2,0,1,8,20,10,,,,,,,,,,,,,,,,,,,,,,,,,,,,,,,,,,,,,,,,724.684846684002,724.684846684002,724.684846684002,724.684846684002,724.684846684002,724.684846684002,724.684846684002,724.684846684002,724.684846684002,724.684846684002,l,0.7765601109967974,10,507,2,725.4857440020023,726.9871731670028,,,,,,,,,,,,,,,,,,,,,,,,,,,,,,,,,,,,,,,,,,,,,,,,,,,,,,,,28713,2022-09-16_15h13.36.017,vts_reward_expectancy,2022.2.4,59.99656747655878,
1,0,0,0,0,0,0,1,triangle,star,2,0,2,0,1,9,21,2,,,,,,,,,,,,,,,,,,,,,,,,,,,,,,,,,,,,,,,,727.4878814719996,727.4878814719996,727.4878814719996,727.4878814719996,727.4878814719996,727.4878814719996,727.4878814719996,727.4878814719996,727.4878814719996,727.4878814719996,a,1.2858422350000183,10,517,2,728.8059781500015,730.3077575919997,,,,,,,,,,,,,,,,,,,,,,,,,,,,,,,,,,,,,,,,,,,,,,,,,,,,,,,,28713,2022-09-16_15h13.36.017,vts_reward_expectancy,2022.2.4,59.99656747655878,
0,0,1,0,1,0,0,0,hexagon,triangle,2,0,2,0,1,10,22,6,,,,,,,,,,,,,,,,,,,,,,,,,,,,,,,,,,,,,,,,730.8080820700015,730.8080820700015,730.8080820700015,730.8080820700015,730.8080820700015,730.8080820700015,730.8080820700015,730.8080820700015,730.8080820700015,730.8080820700015,l,1.4141339359994163,10,527,2,732.2430279510008,733.7448500669998,,,,,,,,,,,,,,,,,,,,,,,,,,,,,,,,,,,,,,,,,,,,,,,,,,,,,,,,28713,2022-09-16_15h13.36.017,vts_reward_expectancy,2022.2.4,59.99656747655878,
0,0,1,0,0,1,0,0,hexagon,circle,2,0,2,0,1,11,23,7,,,,,,,,,,,,,,,,,,,,,,,,,,,,,,,,,,,,,,,,734.2453661770014,734.2453661770014,734.2453661770014,734.2453661770014,734.2453661770014,734.2453661770014,734.2453661770014,734.2453661770014,734.2453661770014,734.2453661770014,l,1.5693212439982744,10,537,2,735.8470720430014,737.3486750709999,,,,,,,,,,,,,,,,,,,,,,,,,,,,,,,,,,,,,,,,,,,,,,,,,,,,,,,,28713,2022-09-16_15h13.36.017,vts_reward_expectancy,2022.2.4,59.99656747655878,
0,0,0,1,0,1,0,0,star ,circle,2,0,2,0,2,0,24,10,,,,,,,,,,,,,,,,,,,,,,,,,,,,,,,,,,,,,,,,737.849614404,737.849614404,737.849614404,737.849614404,737.849614404,737.849614404,737.849614404,737.849614404,737.849614404,737.849614404,l,1.916472144999716,10,547,2,739.7849766990003,741.2867742119997,741.2867742119997,,,,,,,,,,,,,,,,,,,,,,,,,,,,,,,,,,,,,,,,,,,,,,,,,,,,,,,28713,2022-09-16_15h13.36.017,vts_reward_expectancy,2022.2.4,59.99656747655878,
0,0,1,0,0,0,0,1,hexagon,star,2,0,2,0,2,1,25,8,,,,,,,,,,,,,,,,,,,,,,,,,,,,,,,,,,,,,,,,741.7873968530002,741.7873968530002,741.7873968530002,741.7873968530002,741.7873968530002,741.7873968530002,741.7873968530002,741.7873968530002,741.7873968530002,741.7873968530002,a,2.8989416929980507,10,557,2,744.7068935210009,746.2085746770026,,,,,,,,,,,,,,,,,,,,,,,,,,,,,,,,,,,,,,,,,,,,,,,,,,,,,,,,28713,2022-09-16_15h13.36.017,vts_reward_expectancy,2022.2.4,59.99656747655878,
0,1,0,0,0,0,0,1,circle,star,2,0,2,0,2,2,26,5,,,,,,,,,,,,,,,,,,,,,,,,,,,,,,,,,,,,,,,,746.7088229800029,746.7088229800029,746.7088229800029,746.7088229800029,746.7088229800029,746.7088229800029,746.7088229800029,746.7088229800029,746.7088229800029,746.7088229800029,l,5.506492647000414,10,567,2,752.2318126200007,753.7335865000023,,,,,,,,,,,,,,,,,,,,,,,,,,,,,,,,,,,,,,,,,,,,,,,,,,,,,,,,28713,2022-09-16_15h13.36.017,vts_reward_expectancy,2022.2.4,59.99656747655878,
0,0,0,1,1,0,0,0,star,triangle,2,0,2,0,2,3,27,9,,,,,,,,,,,,,,,,,,,,,,,,,,,,,,,,,,,,,,,,754.2339076339995,754.2339076339995,754.2339076339995,754.2339076339995,754.2339076339995,754.2339076339995,754.2339076339995,754.2339076339995,754.2339076339995,754.2339076339995,l,2.948155511996447,10,577,2,757.2041875100003,758.7055966799999,,,,,,,,,,,,,,,,,,,,,,,,,,,,,,,,,,,,,,,,,,,,,,,,,,,,,,,,28713,2022-09-16_15h13.36.017,vts_reward_expectancy,2022.2.4,59.99656747655878,
0,1,0,0,1,0,0,0,circle,triangle,2,0,2,0,2,4,28,3,,,,,,,,,,,,,,,,,,,,,,,,,,,,,,,,,,,,,,,,759.2063072290002,759.2063072290002,759.2063072290002,759.2063072290002,759.2063072290002,759.2063072290002,759.2063072290002,759.2063072290002,759.2063072290002,759.2063072290002,a,1.2158293889988272,10,587,2,760.4411301790024,761.9425863700017,761.9425863700017,,,,,,,,,,,,,,,,,,,,,,,,,,,,,,,,,,,,,,,,,,,,,,,,,,,,,,,28713,2022-09-16_15h13.36.017,vts_reward_expectancy,2022.2.4,59.99656747655878,
0,0,0,1,0,0,1,0,star,hexagon,2,0,2,0,2,5,29,11,,,,,,,,,,,,,,,,,,,,,,,,,,,,,,,,,,,,,,,,762.4431789720002,762.4431789720002,762.4431789720002,762.4431789720002,762.4431789720002,762.4431789720002,762.4431789720002,762.4431789720002,762.4431789720002,762.4431789720002,a,8.882117381996068,1,588,2,771.3530373560025,772.8545233930017,,,,,,,,,,,,,,,,,,,,,,,,,,,,,,,,,,,,,,,,,,,,,,,,,,,,,,,,28713,2022-09-16_15h13.36.017,vts_reward_expectancy,2022.2.4,59.99656747655878,
1,0,0,0,0,0,0,1,triangle,star,2,0,2,0,2,6,30,2,,,,,,,,,,,,,,,,,,,,,,,,,,,,,,,,,,,,,,,,773.3550034470027,773.3550034470027,773.3550034470027,773.3550034470027,773.3550034470027,773.3550034470027,773.3550034470027,773.3550034470027,773.3550034470027,773.3550034470027,l,1.283764034997148,1,589,2,774.6566310520029,776.1581577130019,,,,,,,,,,,,,,,,,,,,,,,,,,,,,,,,,,,,,,,,,,,,,,,,,,,,,,,,28713,2022-09-16_15h13.36.017,vts_reward_expectancy,2022.2.4,59.99656747655878,
0,0,1,0,1,0,0,0,hexagon,triangle,2,0,2,0,2,7,31,6,,,,,,,,,,,,,,,,,,,,,,,,,,,,,,,,,,,,,,,,776.6586300960007,776.6586300960007,776.6586300960007,776.6586300960007,776.6586300960007,776.6586300960007,776.6586300960007,776.6586300960007,776.6586300960007,776.6586300960007,l,3.435323657999106,10,599,2,780.1125908850008,781.6143118380023,781.6143118380023,,,,,,,,,,,,,,,,,,,,,,,,,,,,,,,,,,,,,,,,,,,,,,,,,,,,,,,28713,2022-09-16_15h13.36.017,vts_reward_expectancy,2022.2.4,59.99656747655878,
1,0,0,0,0,0,1,0,triangle,hexagon,2,0,2,0,2,8,32,1,,,,,,,,,,,,,,,,,,,,,,,,,,,,,,,,,,,,,,,,782.1147420369998,782.1147420369998,782.1147420369998,782.1147420369998,782.1147420369998,782.1147420369998,782.1147420369998,782.1147420369998,782.1147420369998,782.1147420369998,l,0.6184936829995422,10,609,2,782.7655316470009,784.2671484880011,,,,,,,,,,,,,,,,,,,,,,,,,,,,,,,,,,,,,,,,,,,,,,,,,,,,,,,,28713,2022-09-16_15h13.36.017,vts_reward_expectancy,2022.2.4,59.99656747655878,
0,1,0,0,0,0,1,0,circle,hexagon,2,0,2,0,2,9,33,4,,,,,,,,,,,,,,,,,,,,,,,,,,,,,,,,,,,,,,,,784.7675065040021,784.7675065040021,784.7675065040021,784.7675065040021,784.7675065040021,784.7675065040021,784.7675065040021,784.7675065040021,784.7675065040021,784.7675065040021,a,0.6863164489986957,10,619,2,785.4852156039997,786.9869147980025,,,,,,,,,,,,,,,,,,,,,,,,,,,,,,,,,,,,,,,,,,,,,,,,,,,,,,,,28713,2022-09-16_15h13.36.017,vts_reward_expectancy,2022.2.4,59.99656747655878,
0,0,1,0,0,1,0,0,hexagon,circle,2,0,2,0,2,10,34,7,,,,,,,,,,,,,,,,,,,,,,,,,,,,,,,,,,,,,,,,787.4872480930026,787.4872480930026,787.4872480930026,787.4872480930026,787.4872480930026,787.4872480930026,787.4872480930026,787.4872480930026,787.4872480930026,787.4872480930026,l,1.4621909689958557,10,629,2,788.9723443319999,790.473996572,,,,,,,,,,,,,,,,,,,,,,,,,,,,,,,,,,,,,,,,,,,,,,,,,,,,,,,,28713,2022-09-16_15h13.36.017,vts_reward_expectancy,2022.2.4,59.99656747655878,
1,0,0,0,0,1,0,0,triangle,circle,2,0,2,0,2,11,35,0,,,,,,,,,,,,,,,,,,,,,,,,,,,,,,,,,,,,,,,,790.9743653210026,790.9743653210026,790.9743653210026,790.9743653210026,790.9743653210026,790.9743653210026,790.9743653210026,790.9743653210026,790.9743653210026,790.9743653210026,l,3.1993012349994387,1,630,2,794.1947896380007,795.6964385810024,,,,,,,,,,,,,,,,,,,,,,,,,,,,,,,,,,,,,,,,,,,,,,,,,,,,,,,,28713,2022-09-16_15h13.36.017,vts_reward_expectancy,2022.2.4,59.99656747655878,
,,,,,,,,,,,,,,,,,,0,0,0,0,0,0,0,0,,,,,,,,,,,,,,,,,,,,,,,,,,,,,,,,,,,,,,,,,,,,,,,,861.3021088140013,,F,174,star,0.002009985997574404,857.8163607730021,859.3166271180016,859.3166271180016,859.3166271180016,1,0,d,0.46577595999769983,0,859.8004409630012,,,,,,,,,,,,,,,,,,,,,,,,,,,,,,,,,,,,,,,,,28713,2022-09-16_15h13.36.017,vts_reward_expectancy,2022.2.4,59.99656747655878,
,,,,,,,,,,,,,,,,,,0,0,0,0,1,0,1,0,,,,,,,,,,,,,,,,,,,,,,,,,,,,,,,,,,,,,,,,,,,,,,,,866.1074453290021,,B,160,circle,0.0011782219989981968,862.2868016700013,863.7883059859996,863.7883059859996,863.7883059859996,1,0,d,0.7852797779960383,0,864.6057068789996,,,,,,,,,,,,,,,,,,,,,,,,,,,,,,,,,,,,,,,,,28713,2022-09-16_15h13.36.017,vts_reward_expectancy,2022.2.4,59.99656747655878,
,,,,,,,,,,,,,,,,,,0,0,0,0,2,0,2,0,,,,,,,,,,,,,,,,,,,,,,,,,,,,,,,,,,,,,,,,,,,,,,,,870.7294878659995,,U,146,triangle,0.0013800460001220927,867.0915645550012,868.5935143150018,868.5935143150018,868.5935143150018,1,0,f,0.6054007459970308,0,869.2275786190003,,,,,,,,,,,,,,,,,,,,,,,,,,,,,,,,,,,,,,,,,28713,2022-09-16_15h13.36.017,vts_reward_expectancy,2022.2.4,59.99656747655878,
,,,,,,,,,,,,,,,,,,0,0,0,0,3,0,3,0,,,,,,,,,,,,,,,,,,,,,,,,,,,,,,,,,,,,,,,,,,,,,,,,875.634529009003,,H,125,hexagon,0.0016368040014640428,871.7155083200014,873.2154781099998,873.2154781099998,873.2154781099998,1,0,d,0.886229376996198,0,874.1329879719997,,,,,,,,,,,,,,,,,,,,,,,,,,,,,,,,,,,,,,,,,28713,2022-09-16_15h13.36.017,vts_reward_expectancy,2022.2.4,59.99656747655878,
,,,,,,,,,,,,,,,,,,0,0,0,0,4,0,4,0,,,,,,,,,,,,,,,,,,,,,,,,,,,,,,,,,,,,,,,,,,,,,,,,880.2730733450007,,W,132,triangle,0.001547383999422891,876.6201670730006,878.120774985,878.120774985,878.120774985,1,0,f,0.6283034739972209,0,878.7713247829997,,,,,,,,,,,,,,,,,,,,,,,,,,,,,,,,,,,,,,,,,28713,2022-09-16_15h13.36.017,vts_reward_expectancy,2022.2.4,59.99656747655878,
,,,,,,,,,,,,,,,,,,0,0,0,0,5,0,5,0,,,,,,,,,,,,,,,,,,,,,,,,,,,,,,,,,,,,,,,,,,,,,,,,885.2452978590009,,Y,167,circle,0.0016045589982240926,881.2582152200011,882.7591108650013,882.7591108650013,882.7591108650013,1,0,f,0.951959068999713,0,883.7435456439998,,,,,,,,,,,,,,,,,,,,,,,,,,,,,,,,,,,,,,,,,28713,2022-09-16_15h13.36.017,vts_reward_expectancy,2022.2.4,59.99656747655878,
,,,,,,,,,,,,,,,,,,0,0,0,0,6,0,6,0,,,,,,,,,,,,,,,,,,,,,,,,,,,,,,,,,,,,,,,,,,,,,,,,889.7670292170005,,D,139,hexagon,0.0017473629995947704,886.2305265190007,887.7316374969996,887.7316374969996,887.7316374969996,1,0,d,0.5147948329977226,0,888.2652281200026,,,,,,,,,,,,,,,,,,,,,,,,,,,,,,,,,,,,,,,,,28713,2022-09-16_15h13.36.017,vts_reward_expectancy,2022.2.4,59.99656747655878,
,,,,,,,,,,,,,,,,,,0,0,0,0,7,0,7,0,,,,,,,,,,,,,,,,,,,,,,,,,,,,,,,,,,,,,,,,,,,,,,,,894.338414400001,,S,181,star,0.00127670299843885,890.7513296300021,892.2529343990027,892.2529343990027,892.2529343990027,1,0,f,0.5530966379992606,0,892.8370502230027,,,,,,,,,,,,,,,,,,,,,,,,,,,,,,,,,,,,,,,,,28713,2022-09-16_15h13.36.017,vts_reward_expectancy,2022.2.4,59.99656747655878,
,,,,,,,,,,,,,,,,,,0,0,0,0,8,0,8,0,,,,,,,,,,,,,,,,,,,,,,,,,,,,,,,,,,,,,,,,,,,,,,,,899.477577308,,F,174,circle,0.0016791720008768607,895.3239903050016,896.8246073980008,896.8246073980008,896.8246073980008,1,0,d,1.1347447519983689,0,897.9758059090018,,,,,,,,,,,,,,,,,,,,,,,,,,,,,,,,,,,,,,,,,28713,2022-09-16_15h13.36.017,vts_reward_expectancy,2022.2.4,59.99656747655878,
,,,,,,,,,,,,,,,,,,0,0,0,0,9,0,9,0,,,,,,,,,,,,,,,,,,,,,,,,,,,,,,,,,,,,,,,,,,,,,,,,903.965795985001,,B,160,triangle,0.001056312001310289,900.4621111779998,901.9637265630008,901.9637265630008,901.9637265630008,1,0,d,0.4735547639975266,0,902.4641731170013,,,,,,,,,,,,,,,,,,,,,,,,,,,,,,,,,,,,,,,,,28713,2022-09-16_15h13.36.017,vts_reward_expectancy,2022.2.4,59.99656747655878,
,,,,,,,,,,,,,,,,,,,,,,,,,,0,0,0,0,0,0,0,0,,,,,,,,,,,,,,,,,,,,,,,,,,,,,,,,,,,,,,,,947.4304740620028,,W,146,circle,0.0021474450004461687,,,,,1,0,,,1,945.9287342240023,943.2947023790002,944.7942322270028,944.7942322270028,944.7942322270028,j,1.1072249009994266,,,,,,,,,,,,,,,,,,,,,,,,,,,,,,,,,,,28713,2022-09-16_15h13.36.017,vts_reward_expectancy,2022.2.4,59.99656747655878,
,,,,,,,,,,,,,,,,,,,,,,,,,,0,0,0,0,1,0,1,0,,,,,,,,,,,,,,,,,,,,,,,,,,,,,,,,,,,,,,,,952.1023246170007,,S,139,triangle,0.0013800590022583492,,,,,1,0,,,1,950.600992341002,948.415880894001,949.9170264320019,949.9170264320019,949.9170264320019,j,0.6649795060002361,952.1023246170007,,,,,,,,,,,,,,,,,,,,,,,,,,,,,,,,,,28713,2022-09-16_15h13.36.017,vts_reward_expectancy,2022.2.4,59.99656747655878,
,,,,,,,,,,,,,,,,,,,,,,,,,,0,0,0,0,2,0,2,0,,,,,,,,,,,,,,,,,,,,,,,,,,,,,,,,,,,,,,,,956.6572953890027,,H,160,hexagon,0.0007679970003664494,,,,,1,0,,,1,955.1555890090021,953.0865994300002,954.5885240880016,954.5885240880016,954.5885240880016,k,0.5457630370001425,,,,,,,,,,,,,,,,,,,,,,,,,,,,,,,,,,,28713,2022-09-16_15h13.36.017,vts_reward_expectancy,2022.2.4,59.99656747655878,
,,,,,,,,,,,,,,,,,,,,,,,,,,0,0,0,0,3,0,3,0,,,,,,,,,,,,,,,,,,,,,,,,,,,,,,,,,,,,,,,,961.4125396939999,,Y,125,star,0.0017215879997820593,,,,,1,0,,,1,959.9108681310026,957.6428760060007,959.1433218430029,959.1433218430029,959.1433218430029,j,0.7350669629995537,,,,,,,,,,,,,,,,,,,,,,,,,,,,,,,,,,,28713,2022-09-16_15h13.36.017,vts_reward_expectancy,2022.2.4,59.99656747655878,
,,,,,,,,,,,,,,,,,,,,,,,,,,0,0,0,0,4,0,4,0,,,,,,,,,,,,,,,,,,,,,,,,,,,,,,,,,,,,,,,,966.9020163010027,,D,132,circle,0.0017858360006357543,,,,,1,0,,,1,965.4003728669995,962.3980691850011,963.8987215500019,963.8987215500019,963.8987215500019,j,1.4849409130001732,,,,,,,,,,,,,,,,,,,,,,,,,,,,,,,,,,,28713,2022-09-16_15h13.36.017,vts_reward_expectancy,2022.2.4,59.99656747655878,
,,,,,,,,,,,,,,,,,,,,,,,,,,0,0,0,0,5,0,5,0,,,,,,,,,,,,,,,,,,,,,,,,,,,,,,,,,,,,,,,,971.3569114490019,,U,174,hexagon,0.00155787100084126,,,,,1,0,,,1,969.8552242320002,967.887301570001,969.3880657049995,969.3880657049995,969.3880657049995,k,0.43500557700099307,,,,,,,,,,,,,,,,,,,,,,,,,,,,,,,,,,,28713,2022-09-16_15h13.36.017,vts_reward_expectancy,2022.2.4,59.99656747655878,
,,,,,,,,,,,,,,,,,,,,,,,,,,0,0,0,0,6,0,6,0,,,,,,,,,,,,,,,,,,,,,,,,,,,,,,,,,,,,,,,,976.2954700860028,,F,167,star,0.001586968999617966,,,,,1,0,,,1,974.7939646090017,972.3419259830007,973.8431105500022,973.8431105500022,973.8431105500022,k,0.9307154169982823,,,,,,,,,,,,,,,,,,,,,,,,,,,,,,,,,,,28713,2022-09-16_15h13.36.017,vts_reward_expectancy,2022.2.4,59.99656747655878,
,,,,,,,,,,,,,,,,,,,,,,,,,,0,0,0,0,7,0,7,0,,,,,,,,,,,,,,,,,,,,,,,,,,,,,,,,,,,,,,,,980.967408585002,,B,181,triangle,0.0017662010031926911,,,,,1,0,,,1,979.4657940640027,977.2801544120011,978.7815848030004,978.7815848030004,978.7815848030004,k,0.6645771189978404,,,,,,,,,,,,,,,,,,,,,,,,,,,,,,,,,,,28713,2022-09-16_15h13.36.017,vts_reward_expectancy,2022.2.4,59.99656747655878,
,,,,,,,,,,,,,,,,,,,,,,,,,,0,0,0,0,8,0,8,0,,,,,,,,,,,,,,,,,,,,,,,,,,,,,,,,,,,,,,,,987.1074902930013,,W,146,circle,0.0016349399993487168,,,,,1,0,,,1,985.6059467880004,981.9515686949999,983.4535825439998,983.4535825439998,983.4535825439998,j,2.120592225997825,,,,,,,,,,,,,,,,,,,,,,,,,,,,,,,,,,,28713,2022-09-16_15h13.36.017,vts_reward_expectancy,2022.2.4,59.99656747655878,
,,,,,,,,,,,,,,,,,,,,,,,,,,0,0,0,0,9,0,9,0,,,,,,,,,,,,,,,,,,,,,,,,,,,,,,,,,,,,,,,,991.9962105110026,,S,139,hexagon,0.001723089997540228,,,,,1,0,,,1,990.4945959960023,988.091984142,989.5954546749999,989.5954546749999,989.5954546749999,j,0.8739214329980314,,,,,,,,,,,,,,,,,,,,,,,,,,,,,,,,,,,28713,2022-09-16_15h13.36.017,vts_reward_expectancy,2022.2.4,59.99656747655878,
,,,,,,,,,,,,,,,,,,,,,,,,,,,,,,,,,,0,0,0,0,0,0,0,0,,,,,,,,,,,,,,,,,,,,,,,,,,,,0,630,,,1003.4423558960007,,W,132,star,0.002300567997735925,,,,,-1,0,,,2,,,,,,,,,997.4381226879996,997.4381226879996,997.4381226879996,997.4381226879996,998.9372786790009,998.9372786790009,998.9372786790009,998.9372786790009,998.9543199870022,998.9543199870022,998.9543199870022,998.9543199870022,1001.9410253940005,1001.9410253940005,1001.9410253940005,1001.9410253940005,-1,no_choice,NA,None,vtsPrac,1001.9410253940005,1003.4423558960007,1003.9430059639999,,,,,,,,,,28713,2022-09-16_15h13.36.017,vts_reward_expectancy,2022.2.4,59.99656747655878,
,,,,,,,,,,,,,,,,,,,,,,,,,,,,,,,,,,0,0,0,0,1,0,1,0,,,,,,,,,,,,,,,,,,,,,,,,,,,,0,630,,,1009.282162669002,,F,160,hexagon,0.009646811999118654,,,,,1,0,,,2,,,,,,,,,1004.4380387350029,1004.4380387350029,1004.4380387350029,1004.4380387350029,1005.9450096120017,1005.9450096120017,1005.9450096120017,1005.9450096120017,1005.9450096120017,1005.9450096120017,1005.9450096120017,1005.9450096120017,,,,,switch,number,numSwt,k,vtsPrac,1007.780397257,,,1.812614581998787,,,,,,,,,28713,2022-09-16_15h13.36.017,vts_reward_expectancy,2022.2.4,59.99656747655878,
,,,,,,,,,,,,,,,,,,,,,,,,,,,,,,,,,,0,0,0,0,2,0,2,0,,,,,,,,,,,,,,,,,,,,,,,,,,,,0,630,,,1015.2555984530009,,Y,174,circle,0.0013297950026753824,,,,,1,0,,,2,,,,,,,,,1010.2682340720021,1010.2682340720021,1010.2682340720021,1010.2682340720021,1011.768141034001,1011.768141034001,1011.768141034001,1011.768141034001,1011.768141034001,1011.768141034001,1011.768141034001,1011.768141034001,,,,,repeat,number,numRpt,k,vtsPrac,1013.753707273001,,,1.9571357940003509,,,,,,,,,28713,2022-09-16_15h13.36.017,vts_reward_expectancy,2022.2.4,59.99656747655878,
,,,,,,,,,,,,,,,,,,,,,,,,,,,,,,,,,,0,0,0,0,3,0,3,0,,,,,,,,,,,,,,,,,,,,,,,,,,,,0,630,,,1020.3276774799997,,S,139,hexagon,0.0014902629991411231,,,,,1,0,,,2,,,,,,,,,1016.241853532003,1016.241853532003,1016.241853532003,1016.241853532003,1017.7414937130015,1017.7414937130015,1017.7414937130015,1017.7414937130015,1017.7414937130015,1017.7414937130015,1017.7414937130015,1017.7414937130015,,,,,repeat,number,numRpt,j,vtsPrac,1018.8262316940018,,,1.0569336059961643,,,,,,,,,28713,2022-09-16_15h13.36.017,vts_reward_expectancy,2022.2.4,59.99656747655878,
,,,,,,,,,,,,,,,,,,,,,,,,,,,,,,,,,,0,0,0,0,4,0,4,0,,,,,,,,,,,,,,,,,,,,,,,,,,,,0,630,,,1025.5163980760008,,W,132,hexagon,0.0016639710011077113,,,,,1,0,,,2,,,,,,,,,1021.3105755310025,1021.3105755310025,1021.3105755310025,1021.3105755310025,1022.8138520460016,1022.8138520460016,1022.8138520460016,1022.8138520460016,1022.8138520460016,1022.8138520460016,1022.8138520460016,1022.8138520460016,,,,,repeat,number,numRpt,j,vtsPrac,1024.014944673003,,,1.1686164919992734,,,,,,,,,28713,2022-09-16_15h13.36.017,vts_reward_expectancy,2022.2.4,59.99656747655878,
,,,,,,,,,,,,,,,,,,,,,,,,,,,,,,,,,,0,0,0,0,5,0,5,0,,,,,,,,,,,,,,,,,,,,,,,,,,,,0,630,,,1030.305177215003,,F,160,star,0.0014613819985243026,,,,,1,0,,,2,,,,,,,,,1026.5018766089997,1026.5018766089997,1026.5018766089997,1026.5018766089997,1028.0026392010004,1028.0026392010004,1028.0026392010004,1028.0026392010004,1028.0026392010004,1028.0026392010004,1028.0026392010004,1028.0026392010004,,,,,repeat,number,numRpt,k,vtsPrac,1028.8034941740007,,,0.7732918769979733,,,,,,,,,28713,2022-09-16_15h13.36.017,vts_reward_expectancy,2022.2.4,59.99656747655878,
,,,,,,,,,,,,,,,,,,,,,,,,,,,,,,,,,,0,0,0,0,6,0,6,0,,,,,,,,,,,,,,,,,,,,,,,,,,,,0,630,,,1035.6447351290008,,Y,174,hexagon,0.00161735000074259,,,,,1,0,,,2,,,,,,,,,1031.2901522890024,1031.2901522890024,1031.2901522890024,1031.2901522890024,1032.7912230149996,1032.7912230149996,1032.7912230149996,1032.7912230149996,1032.7912230149996,1032.7912230149996,1032.7912230149996,1032.7912230149996,,,,,repeat,number,numRpt,k,vtsPrac,1034.1427610700011,,,1.326736187998904,,,,,,,,,28713,2022-09-16_15h13.36.017,vts_reward_expectancy,2022.2.4,59.99656747655878,
,,,,,,,,,,,,,,,,,,,,,,,,,,,,,,,,,,0,0,0,0,7,0,7,0,,,,,,,,,,,,,,,,,,,,,,,,,,,,0,630,,,1040.3662574120026,,S,139,circle,0.0018069979996653274,,,,,1,0,,,2,,,,,,,,,1036.6301734030021,1036.6301734030021,1036.6301734030021,1036.6301734030021,1038.1305178870025,1038.1305178870025,1038.1305178870025,1038.1305178870025,1038.1305178870025,1038.1305178870025,1038.1305178870025,1038.1305178870025,,,,,repeat,number,numRpt,j,vtsPrac,1038.864846777,,,0.706769134998467,,,,,,,,,28713,2022-09-16_15h13.36.017,vts_reward_expectancy,2022.2.4,59.99656747655878,
,,,,,,,,,,,,,,,,,,,,,,,,,,,,,,,,,,0,0,0,0,8,0,8,0,,,,,,,,,,,,,,,,,,,,,,,,,,,,0,630,,,1044.8379071820018,,Y,174,circle,0.001472386000386905,,,,,1,0,,,2,,,,,,,,,1041.3512223630023,1041.3512223630023,1041.3512223630023,1041.3512223630023,1042.8523507450009,1042.8523507450009,1042.8523507450009,1042.8523507450009,1042.8523507450009,1042.8523507450009,1042.8523507450009,1042.8523507450009,,,,,repeat,number,numRpt,k,vtsPrac,1043.336496990003,,,0.4573271359986393,,,,,,,,,28713,2022-09-16_15h13.36.017,vts_reward_expectancy,2022.2.4,59.99656747655878,
,,,,,,,,,,,,,,,,,,,,,,,,,,,,,,,,,,0,0,0,0,9,0,9,0,,,,,,,,,,,,,,,,,,,,,,,,,,,,0,630,,,1049.5596951940024,,H,139,triangle,0.0016567729981034063,,,,,1,0,,,2,,,,,,,,,1045.8226559520008,1045.8226559520008,1045.8226559520008,1045.8226559520008,1047.324050205003,1047.324050205003,1047.324050205003,1047.324050205003,1047.324050205003,1047.324050205003,1047.324050205003,1047.324050205003,,,,,repeat,number,numRpt,j,vtsPrac,1048.0584161520019,,,0.7134767249990546,,,,,,,,,28713,2022-09-16_15h13.36.017,vts_reward_expectancy,2022.2.4,59.99656747655878,
,,,,,,,,,,,,,,,,,,,,,,,,,,,,,,,,,,0,0,0,0,10,0,10,0,,,,,,,,,,,,,,,,,,,,,,,,,,,,0,630,,,1054.1147896380025,,S,160,circle,0.0012716860001091845,,,,,1,0,,,2,,,,,,,,,1050.5447223440024,1050.5447223440024,1050.5447223440024,1050.5447223440024,1052.045832115,1052.045832115,1052.045832115,1052.045832115,1052.045832115,1052.045832115,1052.045832115,1052.045832115,,,,,repeat,number,numRpt,k,vtsPrac,1052.613093131,,,0.5442141619969334,,,,,,,,,28713,2022-09-16_15h13.36.017,vts_reward_expectancy,2022.2.4,59.99656747655878,
,,,,,,,,,,,,,,,,,,,,,,,,,,,,,,,,,,0,0,0,0,11,0,11,0,,,,,,,,,,,,,,,,,,,,,,,,,,,,0,630,,,1058.6198200350009,,U,132,triangle,0.0017890190028992947,,,,,1,0,,,2,,,,,,,,,1055.0995302340016,1055.0995302340016,1055.0995302340016,1055.0995302340016,1056.6008460779994,1056.6008460779994,1056.6008460779994,1056.6008460779994,1056.6008460779994,1056.6008460779994,1056.6008460779994,1056.6008460779994,,,,,repeat,number,numRpt,j,vtsPrac,1057.1182682079998,,,0.4852184759984084,,,,,,,,,28713,2022-09-16_15h13.36.017,vts_reward_expectancy,2022.2.4,59.99656747655878,
,,,,,,,,,,,,,,,,,,,,,,,,,,,,,,,,,,0,0,0,0,12,0,12,0,,,,,,,,,,,,,,,,,,,,,,,,,,,,0,630,,,1063.2749687249998,,S,174,hexagon,0.0029557670022768434,,,,,1,0,,,2,,,,,,,,,1059.606252472,1059.606252472,1059.606252472,1059.606252472,1061.105945899002,1061.105945899002,1061.105945899002,1061.105945899002,1061.105945899002,1061.105945899002,1061.105945899002,1061.105945899002,,,,,repeat,number,numRpt,k,vtsPrac,1061.7732212310002,,,0.6359197359997779,,,,,,,,,28713,2022-09-16_15h13.36.017,vts_reward_expectancy,2022.2.4,59.99656747655878,
,,,,,,,,,,,,,,,,,,,,,,,,,,,,,,,,,,0,0,0,0,13,0,13,0,,,,,,,,,,,,,,,,,,,,,,,,,,,,0,630,,,1068.0303486000012,,D,132,triangle,0.0016728139999031555,,,,,1,0,,,2,,,,,,,,,1064.2603720320003,1064.2603720320003,1064.2603720320003,1064.2603720320003,1065.761159296002,1065.761159296002,1065.761159296002,1065.761159296002,1065.761159296002,1065.761159296002,1065.761159296002,1065.761159296002,,,,,repeat,number,numRpt,j,vtsPrac,1066.5286549000011,,,0.7410721299966099,,,,,,,,,28713,2022-09-16_15h13.36.017,vts_reward_expectancy,2022.2.4,59.99656747655878,
,,,,,,,,,,,,,,,,,,,,,,,,,,,,,,,,,,0,0,0,0,14,0,14,0,,,,,,,,,,,,,,,,,,,,,,,,,,,,0,630,,,1073.035523927003,,U,139,triangle,0.0016167890025826637,,,,,1,0,,,2,,,,,,,,,1069.0143631550018,1069.0143631550018,1069.0143631550018,1069.0143631550018,1070.516255339,1070.516255339,1070.516255339,1070.516255339,1070.516255339,1070.516255339,1070.516255339,1070.516255339,,,,,repeat,number,numRpt,j,vtsPrac,1071.533879863,,,0.9861751469979936,,,,,,,,,28713,2022-09-16_15h13.36.017,vts_reward_expectancy,2022.2.4,59.99656747655878,
,,,,,,,,,,,,,,,,,,,,,,,,,,,,,,,,,,0,0,0,0,15,0,15,0,,,,,,,,,,,,,,,,,,,,,,,,,,,,0,630,,,1078.3747693229998,,F,167,circle,0.001387206997605972,,,,,1,0,,,2,,,,,,,,,1074.020930863,1074.020930863,1074.020930863,1074.020930863,1075.5216788150028,1075.5216788150028,1075.5216788150028,1075.5216788150028,1075.5216788150028,1075.5216788150028,1075.5216788150028,1075.5216788150028,,,,,repeat,number,numRpt,k,vtsPrac,1076.8731668969995,,,1.3323350109967578,,,,,,,,,28713,2022-09-16_15h13.36.017,vts_reward_expectancy,2022.2.4,59.99656747655878,
,,,,,,,,,,,,,,,,,,,,,,,,,,,,,,,,,,1,0,1,0,0,0,0,0,,,,,,,,,,,,,,,,,,,,,,,,,,,,0,630,,,1177.8511277530015,,H,160,circle,0.0016051769998739474,,,,,1,0,,,3,,,,,,,,,1173.8981019120001,1173.8981019120001,1173.8981019120001,1173.8981019120001,1175.3983961230006,1175.3983961230006,1175.3983961230006,1175.3983961230006,1175.3983961230006,1175.3983961230006,1175.3983961230006,1175.3983961230006,,,,,switch,letter,lettSwt,d,vtsPrac,1176.3496380390025,,,0.927637037999375,,,,,,,,,28713,2022-09-16_15h13.36.017,vts_reward_expectancy,2022.2.4,59.99656747655878,
,,,,,,,,,,,,,,,,,,,,,,,,,,,,,,,,,,1,0,1,0,1,0,1,0,,,,,,,,,,,,,,,,,,,,,,,,,,,,0,630,,,1182.4393353230007,,W,174,hexagon,0.001536325002234662,,,,,1,0,,,3,,,,,,,,,1178.8353244200007,1178.8353244200007,1178.8353244200007,1178.8353244200007,1180.3374354670013,1180.3374354670013,1180.3374354670013,1180.3374354670013,1180.3374354670013,1180.3374354670013,1180.3374354670013,1180.3374354670013,,,,,repeat,letter,lettRpt,f,vtsPrac,1180.938194739003,1182.4393353230007,,0.5800459789970773,,,,,,,,,28713,2022-09-16_15h13.36.017,vts_reward_expectancy,2022.2.4,59.99656747655878,
,,,,,,,,,,,,,,,,,,,,,,,,,,,,,,,,,,1,0,1,0,2,0,2,0,,,,,,,,,,,,,,,,,,,,,,,,,,,,0,630,,,1187.211593117001,,Y,132,star,0.0016338929999619722,,,,,1,0,,,3,,,,,,,,,1183.4251482690015,1183.4251482690015,1183.4251482690015,1183.4251482690015,1184.9257352550012,1184.9257352550012,1184.9257352550012,1184.9257352550012,1184.9257352550012,1184.9257352550012,1184.9257352550012,1184.9257352550012,,,,,switch,number,numSwt,j,vtsPrac,1185.7099741230013,,,0.7515739769987704,,,,,,,,,28713,2022-09-16_15h13.36.017,vts_reward_expectancy,2022.2.4,59.99656747655878,
,,,,,,,,,,,,,,,,,,,,,,,,,,,,,,,,,,1,0,1,0,3,0,3,0,,,,,,,,,,,,,,,,,,,,,,,,,,,,0,630,,,1192.117283409003,,S,167,hexagon,0.0020609310013242066,,,,,1,0,,,3,,,,,,,,,1188.1967471720018,1188.1967471720018,1188.1967471720018,1188.1967471720018,1189.6977035970012,1189.6977035970012,1189.6977035970012,1189.6977035970012,1189.6977035970012,1189.6977035970012,1189.6977035970012,1189.6977035970012,,,,,repeat,number,numRpt,k,vtsPrac,1190.615681673,,,0.891945894996752,,,,,,,,,28713,2022-09-16_15h13.36.017,vts_reward_expectancy,2022.2.4,59.99656747655878,
,,,,,,,,,,,,,,,,,,,,,,,,,,,,,,,,,,1,0,1,0,4,0,4,0,,,,,,,,,,,,,,,,,,,,,,,,,,,,0,630,,,1196.8889692110024,,H,160,hexagon,0.0014511209992633667,,,,,1,0,,,3,,,,,,,,,1193.1021669060028,1193.1021669060028,1193.1021669060028,1193.1021669060028,1194.6031767290006,1194.6031767290006,1194.6031767290006,1194.6031767290006,1194.6031767290006,1194.6031767290006,1194.6031767290006,1194.6031767290006,,,,,switch,letter,lettSwt,d,vtsPrac,1195.3876774900018,,,0.7631341029955365,,,,,,,,,28713,2022-09-16_15h13.36.017,vts_reward_expectancy,2022.2.4,59.99656747655878,
,,,,,,,,,,,,,,,,,,,,,,,,,,,,,,,,,,1,0,1,0,5,0,5,0,,,,,,,,,,,,,,,,,,,,,,,,,,,,0,630,,,1201.3772604100013,,W,174,circle,0.00179873100205441,,,,,1,0,,,3,,,,,,,,,1197.8742633969996,1197.8742633969996,1197.8742633969996,1197.8742633969996,1199.3750226930024,1199.3750226930024,1199.3750226930024,1199.3750226930024,1199.3750226930024,1199.3750226930024,1199.3750226930024,1199.3750226930024,,,,,repeat,letter,lettRpt,f,vtsPrac,1199.875703103,,,0.4793702949973522,,,,,,,,,28713,2022-09-16_15h13.36.017,vts_reward_expectancy,2022.2.4,59.99656747655878,
,,,,,,,,,,,,,,,,,,,,,,,,,,,,,,,,,,1,0,1,0,6,0,6,0,,,,,,,,,,,,,,,,,,,,,,,,,,,,0,630,,,1207.100126919002,,Y,132,triangle,0.0016973839992715511,,,,,1,0,,,3,,,,,,,,,1202.3616161850005,1202.3616161850005,1202.3616161850005,1202.3616161850005,1203.8632858090023,1203.8632858090023,1203.8632858090023,1203.8632858090023,1203.8632858090023,1203.8632858090023,1203.8632858090023,1203.8632858090023,,,,,repeat,letter,lettRpt,f,vtsPrac,1205.5984679290013,,,1.7029030259982392,,,,,,,,,28713,2022-09-16_15h13.36.017,vts_reward_expectancy,2022.2.4,59.99656747655878,
,,,,,,,,,,,,,,,,,,,,,,,,,,,,,,,,,,1,0,1,0,7,0,7,0,,,,,,,,,,,,,,,,,,,,,,,,,,,,0,630,,,1212.2058759579995,,S,167,circle,0.0014184079991537146,,,,,1,0,,,3,,,,,,,,,1208.0857122810012,1208.0857122810012,1208.0857122810012,1208.0857122810012,1209.5863567110027,1209.5863567110027,1209.5863567110027,1209.5863567110027,1209.5863567110027,1209.5863567110027,1209.5863567110027,1209.5863567110027,,,,,repeat,letter,lettRpt,f,vtsPrac,1210.7040398280005,,,1.0918567539956712,,,,,,,,,28713,2022-09-16_15h13.36.017,vts_reward_expectancy,2022.2.4,59.99656747655878,
,,,,,,,,,,,,,,,,,,,,,,,,,,,,,,,,,,1,0,1,0,8,0,8,0,,,,,,,,,,,,,,,,,,,,,,,,,,,,0,630,,,1217.8287982729998,,H,160,circle,0.001640613998461049,,,,,1,0,,,3,,,,,,,,,1213.1897221960025,1213.1897221960025,1213.1897221960025,1213.1897221960025,1214.6920610790003,1214.6920610790003,1214.6920610790003,1214.6920610790003,1214.6920610790003,1214.6920610790003,1214.6920610790003,1214.6920610790003,,,,,switch,number,numSwt,k,vtsPrac,1216.3272435729996,,,1.6023127749976993,,,,,,,,,28713,2022-09-16_15h13.36.017,vts_reward_expectancy,2022.2.4,59.99656747655878,
,,,,,,,,,,,,,,,,,,,,,,,,,,,,,,,,,,1,0,1,0,9,0,9,0,,,,,,,,,,,,,,,,,,,,,,,,,,,,0,630,,,1222.7507150580022,,D,181,hexagon,0.0016124819994729478,,,,,1,0,,,3,,,,,,,,,1218.8150561319999,1218.8150561319999,1218.8150561319999,1218.8150561319999,1220.314784782,1220.314784782,1220.314784782,1220.314784782,1220.314784782,1220.314784782,1220.314784782,1220.314784782,,,,,switch,letter,lettSwt,d,vtsPrac,1221.2491113489996,,,0.9074156799979392,,,,,,,,,28713,2022-09-16_15h13.36.017,vts_reward_expectancy,2022.2.4,59.99656747655878,
,,,,,,,,,,,,,,,,,,,,,,,,,,,,,,,,,,1,0,1,0,10,0,10,0,,,,,,,,,,,,,,,,,,,,,,,,,,,,0,630,,,1227.3393364930016,,W,167,circle,0.0016043020004872233,,,,,1,0,,,3,,,,,,,,,1223.7353767310015,1223.7353767310015,1223.7353767310015,1223.7353767310015,1225.2367952640016,1225.2367952640016,1225.2367952640016,1225.2367952640016,1225.2367952640016,1225.2367952640016,1225.2367952640016,1225.2367952640016,,,,,repeat,letter,lettRpt,f,vtsPrac,1225.8377234319996,,,0.5692044409988739,,,,,,,,,28713,2022-09-16_15h13.36.017,vts_reward_expectancy,2022.2.4,59.99656747655878,
,,,,,,,,,,,,,,,,,,,,,,,,,,,,,,,,,,1,0,1,0,11,0,11,0,,,,,,,,,,,,,,,,,,,,,,,,,,,,0,630,,,1232.694960836001,,B,146,hexagon,0.0015305239976441953,,,,,1,0,,,3,,,,,,,,,1228.3242774870014,1228.3242774870014,1228.3242774870014,1228.3242774870014,1229.8255476970007,1229.8255476970007,1229.8255476970007,1229.8255476970007,1229.8255476970007,1229.8255476970007,1229.8255476970007,1229.8255476970007,,,,,switch,number,numSwt,j,vtsPrac,1231.1933783599998,,,1.3405603299979703,,,,,,,,,28713,2022-09-16_15h13.36.017,vts_reward_expectancy,2022.2.4,59.99656747655878,
,,,,,,,,,,,,,,,,,,,,,,,,,,,,,,,,,,1,0,1,0,12,0,12,0,,,,,,,,,,,,,,,,,,,,,,,,,,,,0,630,,,1237.633861772003,,S,146,star,0.0016019690010580234,,,,,1,0,,,3,,,,,,,,,1233.679026093003,1233.679026093003,1233.679026093003,1233.679026093003,1235.1810936210022,1235.1810936210022,1235.1810936210022,1235.1810936210022,1235.1810936210022,1235.1810936210022,1235.1810936210022,1235.1810936210022,,,,,repeat,number,numRpt,j,vtsPrac,1236.132222817003,,,0.9286219419991539,,,,,,,,,28713,2022-09-16_15h13.36.017,vts_reward_expectancy,2022.2.4,59.99656747655878,
,,,,,,,,,,,,,,,,,,,,,,,,,,,,,,,,,,1,0,1,0,13,0,13,0,,,,,,,,,,,,,,,,,,,,,,,,,,,,0,630,,,1242.7394841090027,,Y,160,hexagon,0.0013662900018971413,,,,,1,0,,,3,,,,,,,,,1238.6218639610015,1238.6218639610015,1238.6218639610015,1238.6218639610015,1240.1199836150008,1240.1199836150008,1240.1199836150008,1240.1199836150008,1240.1366108440016,1240.1366108440016,1240.1366108440016,1240.1366108440016,,,,,switch,letter,lettSwt,f,vtsPrac,1241.2380480160027,,,1.0865339989977656,,,,,,,,,28713,2022-09-16_15h13.36.017,vts_reward_expectancy,2022.2.4,59.99656747655878,
,,,,,,,,,,,,,,,,,,,,,,,,,,,,,,,,,,1,0,1,0,14,0,14,0,,,,,,,,,,,,,,,,,,,,,,,,,,,,0,630,,,1247.4781904299998,,B,181,hexagon,0.0014009290025569499,,,,,1,0,,,3,,,,,,,,,1243.7247467680027,1243.7247467680027,1243.7247467680027,1243.7247467680027,1245.2256438740005,1245.2256438740005,1245.2256438740005,1245.2256438740005,1245.2256438740005,1245.2256438740005,1245.2256438740005,1245.2256438740005,,,,,repeat,letter,lettRpt,d,vtsPrac,1245.976337924003,,,0.733115409995662,,,,,,,,,28713,2022-09-16_15h13.36.017,vts_reward_expectancy,2022.2.4,59.99656747655878,
,,,,,,,,,,,,,,,,,,,,,,,,,,,,,,,,,,1,0,1,0,15,0,15,0,,,,,,,,,,,,,,,,,,,,,,,,,,,,0,630,,,1252.7672301710008,,D,139,star,0.0013040560006629676,,,,,1,0,,,3,,,,,,,,,1248.4626111680009,1248.4626111680009,1248.4626111680009,1248.4626111680009,1249.9643885580008,1249.9643885580008,1249.9643885580008,1249.9643885580008,1249.9643885580008,1249.9643885580008,1249.9643885580008,1249.9643885580008,,,,,repeat,letter,lettRpt,d,vtsPrac,1251.2657175860004,,,1.274125104999257,,,,,,,,,28713,2022-09-16_15h13.36.017,vts_reward_expectancy,2022.2.4,59.99656747655878,
,,,,,,,,,,,,,,,,,,,,,,,,,,,,,,,,,,,,,,,,,,0,0,0,0,,,,,,,,,,,,,,,,,,,,,,,,0,630,,,1346.487629956002,,D,139,circle,0.002031783002166776,,,,,1,0,,,,,,,,,,,,1342.4158246280022,1342.4158246280022,1342.4158246280022,1342.4158246280022,1343.9178549160024,1343.9178549160024,1343.9178549160024,1343.9178549160024,1343.9178549160024,1343.9178549160024,1343.9178549160024,1343.9178549160024,,,,,repeat,letter,lettRpt,d,noRew,,,,1.0399643589953484,0,1344.9856644190004,,,,,,,28713,2022-09-16_15h13.36.017,vts_reward_expectancy,2022.2.4,59.99656747655878,
,,,,,,,,,,,,,,,,,,,,,,,,,,,,,,,,,,,,,,,,,,1,0,1,0,,,,,,,,,,,,,,,,,,,,,,,,0,630,,,1351.4094680740018,,S,181,hexagon,0.016975473998172674,,,,,1,0,,,,,,,,,,,,1347.4814644239996,1347.4814644239996,1347.4814644239996,1347.4814644239996,1348.9734034800022,1348.9734034800022,1348.9734034800022,1348.9734034800022,1348.9900886810028,1348.9900886810028,1348.9900886810028,1348.9900886810028,,,,,repeat,letter,lettRpt,f,noRew,,,,0.9042056329963089,0,1349.9079255200013,,,,,,,28713,2022-09-16_15h13.36.017,vts_reward_expectancy,2022.2.4,59.99656747655878,
,,,,,,,,,,,,,,,,,,,,,,,,,,,,,,,,,,,,,,,,,,2,0,2,0,,,,,,,,,,,,,,,,,,,,,,,,0,630,,,1357.2158725020017,,W,125,hexagon,0.0016357439999410417,,,,,1,0,,,,,,,,,,,,1352.3948232069997,1352.3948232069997,1352.3948232069997,1352.3948232069997,1353.8954798800005,1353.8954798800005,1353.8954798800005,1353.8954798800005,1353.8954798800005,1353.8954798800005,1353.8954798800005,1353.8954798800005,,,,,repeat,letter,lettRpt,f,noRew,,,,1.7983653359988239,0,1355.714290398002,,,,,,,28713,2022-09-16_15h13.36.017,vts_reward_expectancy,2022.2.4,59.99656747655878,
,,,,,,,,,,,,,,,,,,,,,,,,,,,,,,,,,,,,,,,,,,3,0,3,0,,,,,,,,,,,,,,,,,,,,,,,,0,630,,,1361.9374718460022,,H,160,star,0.0017545139999128878,,,,,0,0,,,,,,,,,,,,1358.1992740480018,1358.1992740480018,1358.1992740480018,1358.1992740480018,1359.7017885230016,1359.7017885230016,1359.7017885230016,1359.7017885230016,1359.7017885230016,1359.7017885230016,1359.7017885230016,1359.7017885230016,,,,,repeat,letter,NA,f,noRew,,,,0.7124842249977519,0,1360.435896236002,,,,,,,28713,2022-09-16_15h13.36.017,vts_reward_expectancy,2022.2.4,59.99656747655878,
,,,,,,,,,,,,,,,,,,,,,,,,,,,,,,,,,,,,,,,,,,4,0,4,0,,,,,,,,,,,,,,,,,,,,,,,,0,630,,,1367.410366455002,,D,139,triangle,0.0014162980005494319,,,,,1,1,,,,,,,,,,,,1362.9217300929995,1362.9217300929995,1362.9217300929995,1362.9217300929995,1364.4237915760023,1364.4237915760023,1364.4237915760023,1364.4237915760023,1364.4237915760023,1364.4237915760023,1364.4237915760023,1364.4237915760023,,,,,repeat,letter,lettRpt,d,noRew,,,,1.4540022159962973,0,1365.9087116360024,,,,,,,28713,2022-09-16_15h13.36.017,vts_reward_expectancy,2022.2.4,59.99656747655878,
,,,,,,,,,,,,,,,,,,,,,,,,,,,,,,,,,,,,,,,,,,5,0,5,0,,,,,,,,,,,,,,,,,,,,,,,,0,630,,,1372.349225396003,,S,181,star,0.0015276539998012595,,,,,1,0,,,,,,,,,,,,1368.3940014809996,1368.3940014809996,1368.3940014809996,1368.3940014809996,1369.8964462069998,1369.8964462069998,1369.8964462069998,1369.8964462069998,1369.8964462069998,1369.8964462069998,1369.8964462069998,1369.8964462069998,,,,,repeat,letter,lettRpt,f,noRew,,,,0.934690205998777,0,1370.8475376999995,1372.349225396003,,,,,,28713,2022-09-16_15h13.36.017,vts_reward_expectancy,2022.2.4,59.99656747655878,
,,,,,,,,,,,,,,,,,,,,,,,,,,,,,,,,,,,,,,,,,,6,0,6,0,,,,,,,,,,,,,,,,,,,,,,,,0,630,,,1377.588476017001,,W,125,hexagon,0.0009899549986585043,,,,,1,0,,,,,,,,,,,,1373.3347901630004,1373.3347901630004,1373.3347901630004,1373.3347901630004,1374.8353962950023,1374.8353962950023,1374.8353962950023,1374.8353962950023,1374.8353962950023,1374.8353962950023,1374.8353962950023,1374.8353962950023,,,,,repeat,letter,lettRpt,f,noRew,,,,1.2190838919959788,0,1376.0869998060007,,,,,,,28713,2022-09-16_15h13.36.017,vts_reward_expectancy,2022.2.4,59.99656747655878,
,,,,,,,,,,,,,,,,,,,,,,,,,,,,,,,,,,,,,,,,,,7,0,7,0,,,,,,,,,,,,,,,,,,,,,,,,0,630,,,1382.3933970550024,,H,160,star,0.001595313002326293,,,,,1,0,,,,,,,,,,,,1378.5728812380003,1378.5728812380003,1378.5728812380003,1378.5728812380003,1380.0743419870014,1380.0743419870014,1380.0743419870014,1380.0743419870014,1380.0743419870014,1380.0743419870014,1380.0743419870014,1380.0743419870014,,,,,switch,number,numSwt,k,noRew,,,,0.788437889998022,0,1380.8919549330021,,,,,,,28713,2022-09-16_15h13.36.017,vts_reward_expectancy,2022.2.4,59.99656747655878,
,,,,,,,,,,,,,,,,,,,,,,,,,,,,,,,,,,,,,,,,,,8,0,8,0,,,,,,,,,,,,,,,,,,,,,,,,0,630,,,1387.1820774810003,,D,125,triangle,0.0016719880004529841,,,,,1,0,,,,,,,,,,,,1383.3777154480013,1383.3777154480013,1383.3777154480013,1383.3777154480013,1384.8797472170008,1384.8797472170008,1384.8797472170008,1384.8797472170008,1384.8797472170008,1384.8797472170008,1384.8797472170008,1384.8797472170008,,,,,repeat,number,numRpt,j,noRew,,,,0.7832954069963307,0,1385.6804774800003,,,,,,,28713,2022-09-16_15h13.36.017,vts_reward_expectancy,2022.2.4,59.99656747655878,
,,,,,,,,,,,,,,,,,,,,,,,,,,,,,,,,,,,,,,,,,,9,0,9,0,,,,,,,,,,,,,,,,,,,,,,,,0,630,,,1392.104092423,,S,160,star,0.0011897730000782758,,,,,1,0,,,,,,,,,,,,1388.1664671590006,1388.1664671590006,1388.1664671590006,1388.1664671590006,1389.6682299429995,1389.6682299429995,1389.6682299429995,1389.6682299429995,1389.6682299429995,1389.6682299429995,1389.6682299429995,1389.6682299429995,,,,,repeat,number,numRpt,k,noRew,,,,0.9131941909981833,0,1390.6030483860013,,,,,,,28713,2022-09-16_15h13.36.017,vts_reward_expectancy,2022.2.4,59.99656747655878,
,,,,,,,,,,,,,,,,,,,,,,,,,,,,,,,,,,,,,,,,,,10,0,10,0,,,,,,,,,,,,,,,,,,,,,,,,0,630,,,1397.0434604069997,,F,146,star,0.001554667000164045,,,,,1,0,,,,,,,,,,,,1393.0888312720017,1393.0888312720017,1393.0888312720017,1393.0888312720017,1394.5907153240005,1394.5907153240005,1394.5907153240005,1394.5907153240005,1394.5907153240005,1394.5907153240005,1394.5907153240005,1394.5907153240005,,,,,repeat,number,numRpt,j,noRew,,,,0.9186242289979418,0,1395.5414099789996,,,,,,,28713,2022-09-16_15h13.36.017,vts_reward_expectancy,2022.2.4,59.99656747655878,
,,,,,,,,,,,,,,,,,,,,,,,,,,,,,,,,,,,,,,,,,,11,0,11,0,,,,,,,,,,,,,,,,,,,,,,,,0,630,,,1402.015347384,,W,132,hexagon,0.0015954909977153875,,,,,1,0,,,,,,,,,,,,1398.0283779210004,1398.0283779210004,1398.0283779210004,1398.0283779210004,1399.5291384850025,1399.5291384850025,1399.5291384850025,1399.5291384850025,1399.5291384850025,1399.5291384850025,1399.5291384850025,1399.5291384850025,,,,,repeat,number,numRpt,j,noRew,,,,0.9651099039983819,0,1400.513670782002,,,,,,,28713,2022-09-16_15h13.36.017,vts_reward_expectancy,2022.2.4,59.99656747655878,
,,,,,,,,,,,,,,,,,,,,,,,,,,,,,,,,,,,,,,,,,,12,0,12,0,,,,,,,,,,,,,,,,,,,,,,,,0,630,,,1406.6537702640017,,D,132,triangle,0.001242692000232637,,,,,1,0,,,,,,,,,,,,1403.0007619050011,1403.0007619050011,1403.0007619050011,1403.0007619050011,1404.5014427580027,1404.5014427580027,1404.5014427580027,1404.5014427580027,1404.5014427580027,1404.5014427580027,1404.5014427580027,1404.5014427580027,,,,,repeat,number,numRpt,j,noRew,,,,0.633911476998037,0,1405.1523791750005,,,,,,,28713,2022-09-16_15h13.36.017,vts_reward_expectancy,2022.2.4,59.99656747655878,
,,,,,,,,,,,,,,,,,,,,,,,,,,,,,,,,,,,,,,,,,,13,0,13,0,,,,,,,,,,,,,,,,,,,,,,,,0,630,,,1411.325517526002,,S,181,circle,0.0011638510004559066,,,,,1,0,,,,,,,,,,,,1407.638089082,1407.638089082,1407.638089082,1407.638089082,1409.1395673180014,1409.1395673180014,1409.1395673180014,1409.1395673180014,1409.1395673180014,1409.1395673180014,1409.1395673180014,1409.1395673180014,,,,,switch,letter,lettSwt,f,noRew,,,,0.651857298998948,0,1409.823811235001,,,,,,,28713,2022-09-16_15h13.36.017,vts_reward_expectancy,2022.2.4,59.99656747655878,
,,,,,,,,,,,,,,,,,,,,,,,,,,,,,,,,,,,,,,,,,,14,0,14,0,,,,,,,,,,,,,,,,,,,,,,,,0,630,,,1415.8972413869997,,Y,125,hexagon,0.0018408569994790014,,,,,1,0,,,,,,,,,,,,1412.3098147710007,1412.3098147710007,1412.3098147710007,1412.3098147710007,1413.811446996002,1413.811446996002,1413.811446996002,1413.811446996002,1413.811446996002,1413.811446996002,1413.811446996002,1413.811446996002,,,,,repeat,letter,lettRpt,f,noRew,,,,0.5628246969972679,0,1414.3954953930006,,,,,,,28713,2022-09-16_15h13.36.017,vts_reward_expectancy,2022.2.4,59.99656747655878,
,,,,,,,,,,,,,,,,,,,,,,,,,,,,,,,,,,,,,,,,,,15,0,15,0,,,,,,,,,,,,,,,,,,,,,,,,0,630,,,1421.3365768600015,,B,139,triangle,0.0017451429994252976,,,,,1,0,,,,,,,,,,,,1416.881574504001,1416.881574504001,1416.881574504001,1416.881574504001,1418.3833584120002,1418.3833584120002,1418.3833584120002,1418.3833584120002,1418.3833584120002,1418.3833584120002,1418.3833584120002,1418.3833584120002,,,,,repeat,letter,lettRpt,d,noRew,,,,1.4300756549964717,0,1419.8348479710003,,,,,,,28713,2022-09-16_15h13.36.017,vts_reward_expectancy,2022.2.4,59.99656747655878,
,,,,,,,,,,,,,,,,,,,,,,,,,,,,,,,,,,,,,,,,,,16,0,16,0,,,,,,,,,,,,,,,,,,,,,,,,0,630,,,1426.1920451260012,,H,181,circle,0.0015086769999470562,,,,,1,0,,,,,,,,,,,,1422.320862441,1422.320862441,1422.320862441,1422.320862441,1423.822570184002,1423.822570184002,1423.822570184002,1423.822570184002,1423.822570184002,1423.822570184002,1423.822570184002,1423.822570184002,,,,,repeat,letter,lettRpt,d,noRew,,,,0.8393583139986731,0,1424.6904167570028,,,,,,,28713,2022-09-16_15h13.36.017,vts_reward_expectancy,2022.2.4,59.99656747655878,
,,,,,,,,,,,,,,,,,,,,,,,,,,,,,,,,,,,,,,,,,,17,0,17,0,,,,,,,,,,,,,,,,,,,,,,,,0,630,,,1432.0650223820012,,F,167,star,0.0015762950024509337,,,,,1,0,,,,,,,,,,,,1427.1762663920017,1427.1762663920017,1427.1762663920017,1427.1762663920017,1428.6780487370015,1428.6780487370015,1428.6780487370015,1428.6780487370015,1428.6780487370015,1428.6780487370015,1428.6780487370015,1428.6780487370015,,,,,repeat,letter,lettRpt,d,noRew,,,,1.8644490459955705,0,1430.5632830390023,,,,,,,28713,2022-09-16_15h13.36.017,vts_reward_expectancy,2022.2.4,59.99656747655878,
,,,,,,,,,,,,,,,,,,,,,,,,,,,,,,,,,,,,,,,,,,18,0,18,0,,,,,,,,,,,,,,,,,,,,,,,,0,630,,,1437.120653404003,,U,146,hexagon,0.0014602909977838863,,,,,1,0,,,,,,,,,,,,1433.0506349610005,1433.0506349610005,1433.0506349610005,1433.0506349610005,1434.5514357730026,1434.5514357730026,1434.5514357730026,1434.5514357730026,1434.5514357730026,1434.5514357730026,1434.5514357730026,1434.5514357730026,,,,,repeat,letter,lettRpt,f,noRew,,,,1.0395145669972408,0,1435.6190032690029,,,,,,,28713,2022-09-16_15h13.36.017,vts_reward_expectancy,2022.2.4,59.99656747655878,
,,,,,,,,,,,,,,,,,,,,,,,,,,,,,,,,,,,,,,,,,,19,0,19,0,,,,,,,,,,,,,,,,,,,,,,,,0,630,,,1442.4266938030014,,D,139,star,0.0016297929978463799,,,,,1,0,,,,,,,,,,,,1438.1086730240022,1438.1086730240022,1438.1086730240022,1438.1086730240022,1439.6067639860012,1439.6067639860012,1439.6067639860012,1439.6067639860012,1439.6235423430007,1439.6235423430007,1439.6235423430007,1439.6235423430007,,,,,repeat,letter,lettRpt,d,noRew,,,,1.2945280509993609,0,1440.9248748480022,,,,,,,28713,2022-09-16_15h13.36.017,vts_reward_expectancy,2022.2.4,59.99656747655878,
,,,,,,,,,,,,,,,,,,,,,,,,,,,,,,,,,,,,,,,,,,20,0,20,0,,,,,,,,,,,,,,,,,,,,,,,,0,630,,,1447.1484302490026,,U,139,triangle,0.0018231489993922878,,,,,1,0,,,,,,,,,,,,1443.4106309340023,1443.4106309340023,1443.4106309340023,1443.4106309340023,1444.9126179710001,1444.9126179710001,1444.9126179710001,1444.9126179710001,1444.9126179710001,1444.9126179710001,1444.9126179710001,1444.9126179710001,,,,,switch,number,numSwt,j,noRew,,,,0.7091310729956604,0,1445.646870132001,,,,,,,28713,2022-09-16_15h13.36.017,vts_reward_expectancy,2022.2.4,59.99656747655878,
,,,,,,,,,,,,,,,,,,,,,,,,,,,,,,,,,,,,,,,,,,21,0,21,0,,,,,,,,,,,,,,,,,,,,,,,,0,630,,,1451.9203077250022,,D,132,star,0.0016028329991968349,,,,,1,0,,,,,,,,,,,,1448.1334543459998,1448.1334543459998,1448.1334543459998,1448.1334543459998,1449.6345473330002,1449.6345473330002,1449.6345473330002,1449.6345473330002,1449.6345473330002,1449.6345473330002,1449.6345473330002,1449.6345473330002,,,,,repeat,number,numRpt,j,noRew,,,,0.7554565209975408,0,1450.4187122870026,,,,,,,28713,2022-09-16_15h13.36.017,vts_reward_expectancy,2022.2.4,59.99656747655878,
,,,,,,,,,,,,,,,,,,,,,,,,,,,,,,,,,,,,,,,,,,22,0,22,0,,,,,,,,,,,,,,,,,,,,,,,,0,630,,,1456.6754015130027,,S,146,star,0.0015287599999282975,,,,,1,0,,,,,,,,,,,,1452.9057716570023,1452.9057716570023,1452.9057716570023,1452.9057716570023,1454.4064067079998,1454.4064067079998,1454.4064067079998,1454.4064067079998,1454.4064067079998,1454.4064067079998,1454.4064067079998,1454.4064067079998,,,,,repeat,number,numRpt,j,noRew,,,,0.7351875189960992,0,1455.1739928179995,,,,,,,28713,2022-09-16_15h13.36.017,vts_reward_expectancy,2022.2.4,59.99656747655878,
,,,,,,,,,,,,,,,,,,,,,,,,,,,,,,,,,,,,,,,,,,23,0,23,0,,,,,,,,,,,,,,,,,,,,,,,,0,630,,,1461.5978498570003,,Y,181,hexagon,0.001673252998443786,,,,,1,0,,,,,,,,,,,,1457.6610208730017,1457.6610208730017,1457.6610208730017,1457.6610208730017,1459.161824378003,1459.161824378003,1459.161824378003,1459.161824378003,1459.161824378003,1459.161824378003,1459.161824378003,1459.161824378003,,,,,switch,letter,lettSwt,f,noRew,,,,0.9178560859982099,0,1460.0961220380013,1461.5978498570003,,,,,,28713,2022-09-16_15h13.36.017,vts_reward_expectancy,2022.2.4,59.99656747655878,
,,,,,,,,,,,,,,,,,,,,,,,,,,,,,,,,,,,,,,,,,,24,0,24,0,,,,,,,,,,,,,,,,,,,,,,,,0,630,,,1466.9869040020021,,W,174,circle,0.0009044869984791148,,,,,1,0,,,,,,,,,,,,1462.5824809900005,1462.5824809900005,1462.5824809900005,1462.5824809900005,1464.0839248010016,1464.0839248010016,1464.0839248010016,1464.0839248010016,1464.0839248010016,1464.0839248010016,1464.0839248010016,1464.0839248010016,,,,,repeat,letter,lettRpt,f,noRew,,,,1.3784175279979536,0,1465.4852507390024,,,,,,,28713,2022-09-16_15h13.36.017,vts_reward_expectancy,2022.2.4,59.99656747655878,
,,,,,,,,,,,,,,,,,,,,,,,,,,,,,,,,,,,,,,,,,,25,0,25,0,,,,,,,,,,,,,,,,,,,,,,,,0,630,,,1471.9756473110028,,D,181,hexagon,0.0016677929997968022,,,,,1,0,,,,,,,,,,,,1467.971745922001,1467.971745922001,1467.971745922001,1467.971745922001,1469.4728375550003,1469.4728375550003,1469.4728375550003,1469.4728375550003,1469.4728375550003,1469.4728375550003,1469.4728375550003,1469.4728375550003,,,,,repeat,letter,lettRpt,d,noRew,,,,0.9725133029969584,0,1470.4741176589996,,,,,,,28713,2022-09-16_15h13.36.017,vts_reward_expectancy,2022.2.4,59.99656747655878,
,,,,,,,,,,,,,,,,,,,,,,,,,,,,,,,,,,,,,,,,,,26,0,26,0,,,,,,,,,,,,,,,,,,,,,,,,0,630,,,1476.5810821310006,,F,160,hexagon,0.00157232299898169,,,,,1,0,,,,,,,,,,,,1472.9604121390003,1472.9604121390003,1472.9604121390003,1472.9604121390003,1474.4618086810005,1474.4618086810005,1474.4618086810005,1474.4618086810005,1474.4618086810005,1474.4618086810005,1474.4618086810005,1474.4618086810005,,,,,switch,number,numSwt,k,noRew,,,,0.5848297249976895,0,1475.0795469490004,,,,,,,28713,2022-09-16_15h13.36.017,vts_reward_expectancy,2022.2.4,59.99656747655878,
,,,,,,,,,,,,,,,,,,,,,,,,,,,,,,,,,,,,,,,,,,27,0,27,0,,,,,,,,,,,,,,,,,,,,,,,,0,630,,,1481.2191598419995,,S,125,star,0.0016159120023075957,,,,,1,0,,,,,,,,,,,,1477.5652031300015,1477.5652031300015,1477.5652031300015,1477.5652031300015,1479.0668842930027,1479.0668842930027,1479.0668842930027,1479.0668842930027,1479.0668842930027,1479.0668842930027,1479.0668842930027,1479.0668842930027,,,,,repeat,number,numRpt,j,noRew,,,,0.6183087209974474,0,1479.7174762390023,,,,,,,28713,2022-09-16_15h13.36.017,vts_reward_expectancy,2022.2.4,59.99656747655878,
,,,,,,,,,,,,,,,,,,,,,,,,,,,,,,,,,,,,,,,,,,28,0,28,0,,,,,,,,,,,,,,,,,,,,,,,,0,630,,,1486.6752382449995,,F,146,star,0.0017215859988937154,,,,,1,0,,,,,,,,,,,,1482.204103332002,1482.204103332002,1482.204103332002,1482.204103332002,1483.7052933510022,1483.7052933510022,1483.7052933510022,1483.7052933510022,1483.7052933510022,1483.7052933510022,1483.7052933510022,1483.7052933510022,,,,,repeat,number,numRpt,j,noRew,,,,1.436561818998598,0,1485.173894120002,,,,,,,28713,2022-09-16_15h13.36.017,vts_reward_expectancy,2022.2.4,59.99656747655878,
,,,,,,,,,,,,,,,,,,,,,,,,,,,,,,,,,,,,,,,,,,29,0,29,0,,,,,,,,,,,,,,,,,,,,,,,,0,630,,,1491.463881587002,,D,139,triangle,0.001649809997616103,,,,,1,0,,,,,,,,,,,,1487.6607477350008,1487.6607477350008,1487.6607477350008,1487.6607477350008,1489.1615648450024,1489.1615648450024,1489.1615648450024,1489.1615648450024,1489.1615648450024,1489.1615648450024,1489.1615648450024,1489.1615648450024,,,,,repeat,number,numRpt,j,noRew,,,,0.781145500997809,0,1489.9624964739996,,,,,,,28713,2022-09-16_15h13.36.017,vts_reward_expectancy,2022.2.4,59.99656747655878,
,,,,,,,,,,,,,,,,,,,,,,,,,,,,,,,,,,,,,,,,,,30,0,30,0,,,,,,,,,,,,,,,,,,,,,,,,0,630,,,1496.2693033200012,,U,174,triangle,0.0012453290000848938,,,,,1,0,,,,,,,,,,,,1492.4496094500028,1492.4496094500028,1492.4496094500028,1492.4496094500028,1493.9499311079999,1493.9499311079999,1493.9499311079999,1493.9499311079999,1493.9499311079999,1493.9499311079999,1493.9499311079999,1493.9499311079999,,,,,repeat,number,numRpt,k,noRew,,,,0.7916865909974149,0,1494.7677731850017,,,,,,,28713,2022-09-16_15h13.36.017,vts_reward_expectancy,2022.2.4,59.99656747655878,
,,,,,,,,,,,,,,,,,,,,,,,,,,,,,,,,,,,,,,,,,,31,0,31,0,,,,,,,,,,,,,,,,,,,,,,,,0,630,,,1501.3415287230018,,H,181,star,0.001558484000270255,,,,,0,0,,,,,,,,,,,,1497.2544559300004,1497.2544559300004,1497.2544559300004,1497.2544559300004,1498.7556113829996,1498.7556113829996,1498.7556113829996,1498.7556113829996,1498.7556113829996,1498.7556113829996,1498.7556113829996,1498.7556113829996,,,,,switch,letter,NA,f,noRew,,,,1.0586550529988017,0,1499.8397848269997,,,,,,,28713,2022-09-16_15h13.36.017,vts_reward_expectancy,2022.2.4,59.99656747655878,
,,,,,,,,,,,,,,,,,,,,,,,,,,,,,,,,,,,,,,,,,,32,0,32,0,,,,,,,,,,,,,,,,,,,,,,,,0,630,,,1506.196734600002,,H,181,star,0.0016093439990072511,,,,,1,1,,,,,,,,,,,,1502.3241846430028,1502.3241846430028,1502.3241846430028,1502.3241846430028,1503.8276669650004,1503.8276669650004,1503.8276669650004,1503.8276669650004,1503.8276669650004,1503.8276669650004,1503.8276669650004,1503.8276669650004,,,,,repeat,letter,lettRpt,d,noRew,,,,0.8425106989998312,0,1504.6951806640027,,,,,,,28713,2022-09-16_15h13.36.017,vts_reward_expectancy,2022.2.4,59.99656747655878,
,,,,,,,,,,,,,,,,,,,,,,,,,,,,,,,,,,,,,,,,,,33,0,33,0,,,,,,,,,,,,,,,,,,,,,,,,0,630,,,1510.902396122001,,W,160,triangle,0.001562142999318894,,,,,1,0,,,,,,,,,,,,1507.1816748320016,1507.1816748320016,1507.1816748320016,1507.1816748320016,1508.682879848002,1508.682879848002,1508.682879848002,1508.682879848002,1508.682879848002,1508.682879848002,1508.682879848002,1508.682879848002,,,,,repeat,letter,lettRpt,f,noRew,,,,0.6908180109967361,0,1509.4004400740014,,,,,,,28713,2022-09-16_15h13.36.017,vts_reward_expectancy,2022.2.4,59.99656747655878,
,,,,,,,,,,,,,,,,,,,,,,,,,,,,,,,,,,,,,,,,,,34,0,34,0,,,,,,,,,,,,,,,,,,,,,,,,0,630,,,1516.4081781310015,,S,174,hexagon,0.0017686700011836365,,,,,1,0,,,,,,,,,,,,1511.8870193889998,1511.8870193889998,1511.8870193889998,1511.8870193889998,1513.3880641979995,1513.3880641979995,1513.3880641979995,1513.3880641979995,1513.3880641979995,1513.3880641979995,1513.3880641979995,1513.3880641979995,,,,,repeat,letter,lettRpt,f,noRew,,,,1.4897968809964368,0,1514.9063469970024,,,,,,,28713,2022-09-16_15h13.36.017,vts_reward_expectancy,2022.2.4,59.99656747655878,
,,,,,,,,,,,,,,,,,,,,,,,,,,,,,,,,,,,,,,,,,,35,0,35,0,,,,,,,,,,,,,,,,,,,,,,,,0,630,,,1521.196799057001,,U,167,star,0.0012786299994331785,,,,,1,0,,,,,,,,,,,,1517.3934411170012,1517.3934411170012,1517.3934411170012,1517.3934411170012,1518.8942943140028,1518.8942943140028,1518.8942943140028,1518.8942943140028,1518.8942943140028,1518.8942943140028,1518.8942943140028,1518.8942943140028,,,,,repeat,letter,lettRpt,f,noRew,,,,0.7751433169978554,0,1519.6950561660015,,,,,,,28713,2022-09-16_15h13.36.017,vts_reward_expectancy,2022.2.4,59.99656747655878,
,,,,,,,,,,,,,,,,,,,,,,,,,,,,,,,,,,,,,,,,,,36,0,36,0,,,,,,,,,,,,,,,,,,,,,,,,0,630,,,1525.9853972080018,,D,167,star,0.0015129640014492907,,,,,1,0,,,,,,,,,,,,1522.181786723002,1522.181786723002,1522.181786723002,1522.181786723002,1523.6831307460016,1523.6831307460016,1523.6831307460016,1523.6831307460016,1523.6831307460016,1523.6831307460016,1523.6831307460016,1523.6831307460016,,,,,repeat,letter,lettRpt,d,noRew,,,,0.7701243349983997,0,1524.4838785200009,,,,,,,28713,2022-09-16_15h13.36.017,vts_reward_expectancy,2022.2.4,59.99656747655878,
,,,,,,,,,,,,,,,,,,,,,,,,,,,,,,,,,,,,,,,,,,37,0,37,0,,,,,,,,,,,,,,,,,,,,,,,,0,630,,,1530.6071868319996,,U,174,hexagon,0.001566713999636704,,,,,1,0,,,,,,,,,,,,1526.9707768210028,1526.9707768210028,1526.9707768210028,1526.9707768210028,1528.4714177560018,1528.4714177560018,1528.4714177560018,1528.4714177560018,1528.4714177560018,1528.4714177560018,1528.4714177560018,1528.4714177560018,,,,,repeat,letter,lettRpt,f,noRew,,,,0.6148852129990701,0,1529.1054137790015,,,,,,,28713,2022-09-16_15h13.36.017,vts_reward_expectancy,2022.2.4,59.99656747655878,
,,,,,,,,,,,,,,,,,,,,,,,,,,,,,,,,,,,,,,,,,,38,0,38,0,,,,,,,,,,,,,,,,,,,,,,,,0,630,,,1535.595960857001,,F,181,hexagon,0.0011504459980642423,,,,,1,0,,,,,,,,,,,,1531.5926095510004,1531.5926095510004,1531.5926095510004,1531.5926095510004,1533.0931068339996,1533.0931068339996,1533.0931068339996,1533.0931068339996,1533.0931068339996,1533.0931068339996,1533.0931068339996,1533.0931068339996,,,,,repeat,letter,lettRpt,d,noRew,,,,0.9685149169963552,0,1534.0944779279998,,,,,,,28713,2022-09-16_15h13.36.017,vts_reward_expectancy,2022.2.4,59.99656747655878,
