LTriangleOpac,LCircleOpac,LHexagonOpac,LStarOpac,RTriangleOpac,RCircleOpac,RHexagonOpac,RStarOpac,LShape_ID,RShape_ID,training_blocks.thisRepN,training_blocks.thisTrialN,training_blocks.thisN,training_blocks.thisIndex,training.thisRepN,training.thisTrialN,training.thisN,training.thisIndex,task1_prac_redo.thisRepN,task1_prac_redo.thisTrialN,task1_prac_redo.thisN,task1_prac_redo.thisIndex,task1_prac_trials.thisRepN,task1_prac_trials.thisTrialN,task1_prac_trials.thisN,task1_prac_trials.thisIndex,task2_prac_redo.thisRepN,task2_prac_redo.thisTrialN,task2_prac_redo.thisN,task2_prac_redo.thisIndex,task2_praac_trials.thisRepN,task2_praac_trials.thisTrialN,task2_praac_trials.thisN,task2_praac_trials.thisIndex,vts_prac_redo.thisRepN,vts_prac_redo.thisTrialN,vts_prac_redo.thisN,vts_prac_redo.thisIndex,vts_practice_trials.thisRepN,vts_practice_trials.thisTrialN,vts_practice_trials.thisN,vts_practice_trials.thisIndex,trials_norew.thisRepN,trials_norew.thisTrialN,trials_norew.thisN,trials_norew.thisIndex,block.thisRepN,block.thisTrialN,block.thisN,block.thisIndex,trials_rew.thisRepN,trials_rew.thisTrialN,trials_rew.thisN,trials_rew.thisIndex,key_resp.started,key_resp.keys,key_resp.rt,left_circle.started,right_circle.started,left_triangle.started,right_triangle.started,left_star.started,right_star.started,left_hexagon.started,right_hexagon.started,training_fix.started,training_resp.started,training_resp.keys,training_resp.rt,points_trial,points_training,trainBlock,training_feedback_txt.started,fix.started,curr_topStim,curr_bottStim,curr_shape,ISI.started,tgt_fix_prac1.started,top_target_prac1.started,bott_target_prac1.started,target_resp_prac1.started,top_target_prac1.stopped,tgt_fix_prac1.stopped,bott_target_prac1.stopped,target_resp_prac1.stopped,acc,E1,target_resp_prac1.keys,pracBlock,prac_fback_text.started,prac_fback_text.stopped,fix.stopped,target_resp_prac1.rt,tgt_fix_prac2.started,top_target_prac2.started,bott_target_prac2.started,target_resp_prac2.started,target_resp_prac2.keys,target_resp_prac2.rt,star.started,hegagon.started,triangle.started,circle.started,top_target.started,tgt_fix.started,bot_target.started,target_resp.started,star.stopped,hegagon.stopped,triangle.stopped,circle.stopped,alt,task,condition,target_resp.keys,target_resp.rt,rewCond,points_cumul,vts_fback.started,vts_fback.stopped,top_target.stopped,tgt_fix.stopped,bot_target.stopped,target_resp.stopped,blockNum,norew_fback.started,key_resp_2.keys,key_resp_2.rt,feedbk_text.started,participant,date,expName,psychopyVersion,frameRate,
,,,,,,,,,,,,,,,,,,,,,,,,,,,,,,,,,,,,,,,,,,,,,,,,,,,,,,15.40956433699921,space,1.7514046230007807,,,,,,,,,,,,,,,,,,,,,,,,,,,,,,,,,,,,,,,,,,,,,,,,,,,,,,,,,,,,,,,,,,,,,,,,,,29784,2022-09-16_10h26.56.074,vts_reward_expectancy,2022.2.4,59.9292494456976,
0,1,0,0,0,0,0,1,circle,star,0,0,0,0,0,0,0,5,,,,,,,,,,,,,,,,,,,,,,,,,,,,,,,,,,,,,,,,41.79174438499922,41.79174438499922,41.79174438499922,41.79174438499922,41.79174438499922,41.79174438499922,41.79174438499922,41.79174438499922,41.79174438499922,41.79174438499922,l,2.2575529970008574,10,10,3,44.120877568999276,45.602511636999225,,,,,,,,,,,,,,,,,,,,,,,,,,,,,,,,,,,,,,,,,,,,,,,,,,,,,,,,,29784,2022-09-16_10h26.56.074,vts_reward_expectancy,2022.2.4,59.9292494456976,
0,0,1,0,0,1,0,0,hexagon,circle,0,0,0,0,0,1,1,7,,,,,,,,,,,,,,,,,,,,,,,,,,,,,,,,,,,,,,,,46.10224560899951,46.10224560899951,46.10224560899951,46.10224560899951,46.10224560899951,46.10224560899951,46.10224560899951,46.10224560899951,46.10224560899951,46.10224560899951,a,1.4195920920010394,1,11,3,47.55462044899923,49.05637359699995,,,,,,,,,,,,,,,,,,,,,,,,,,,,,,,,,,,,,,,,,,,,,,,,,,,,,,,,,29784,2022-09-16_10h26.56.074,vts_reward_expectancy,2022.2.4,59.9292494456976,
0,0,0,1,1,0,0,0,star,triangle,0,0,0,0,0,2,2,9,,,,,,,,,,,,,,,,,,,,,,,,,,,,,,,,,,,,,,,,49.55683315399983,49.55683315399983,49.55683315399983,49.55683315399983,49.55683315399983,49.55683315399983,49.55683315399983,49.55683315399983,49.55683315399983,49.55683315399983,a,1.788145326000631,10,21,3,51.37552285599941,52.877238499999294,,,,,,,,,,,,,,,,,,,,,,,,,,,,,,,,,,,,,,,,,,,,,,,,,,,,,,,,,29784,2022-09-16_10h26.56.074,vts_reward_expectancy,2022.2.4,59.9292494456976,
0,1,0,0,0,0,1,0,circle,hexagon,0,0,0,0,0,3,3,4,,,,,,,,,,,,,,,,,,,,,,,,,,,,,,,,,,,,,,,,53.37761309199959,53.37761309199959,53.37761309199959,53.37761309199959,53.37761309199959,53.37761309199959,53.37761309199959,53.37761309199959,53.37761309199959,53.37761309199959,a,1.3840215850004824,1,22,3,54.779213836000054,56.28087505499934,,,,,,,,,,,,,,,,,,,,,,,,,,,,,,,,,,,,,,,,,,,,,,,,,,,,,,,,,29784,2022-09-16_10h26.56.074,vts_reward_expectancy,2022.2.4,59.9292494456976,
0,0,1,0,1,0,0,0,hexagon,triangle,0,0,0,0,0,4,4,6,,,,,,,,,,,,,,,,,,,,,,,,,,,,,,,,,,,,,,,,56.78141479699934,56.78141479699934,56.78141479699934,56.78141479699934,56.78141479699934,56.78141479699934,56.78141479699934,56.78141479699934,56.78141479699934,56.78141479699934,a,1.3473349120013154,10,32,3,58.149525088999326,59.651273604999915,,,,,,,,,,,,,,,,,,,,,,,,,,,,,,,,,,,,,,,,,,,,,,,,,,,,,,,,,29784,2022-09-16_10h26.56.074,vts_reward_expectancy,2022.2.4,59.9292494456976,
1,0,0,0,0,0,1,0,triangle,hexagon,0,0,0,0,0,5,5,1,,,,,,,,,,,,,,,,,,,,,,,,,,,,,,,,,,,,,,,,60.15100892800001,60.15100892800001,60.15100892800001,60.15100892800001,60.15100892800001,60.15100892800001,60.15100892800001,60.15100892800001,60.15100892800001,60.15100892800001,l,0.8739563790004468,10,42,3,61.052803119999226,62.55371004099925,,,,,,,,,,,,,,,,,,,,,,,,,,,,,,,,,,,,,,,,,,,,,,,,,,,,,,,,,29784,2022-09-16_10h26.56.074,vts_reward_expectancy,2022.2.4,59.9292494456976,
1,0,0,0,0,0,0,1,triangle,star,0,0,0,0,0,6,6,2,,,,,,,,,,,,,,,,,,,,,,,,,,,,,,,,,,,,,,,,63.05493620499965,63.05493620499965,63.05493620499965,63.05493620499965,63.05493620499965,63.05493620499965,63.05493620499965,63.05493620499965,63.05493620499965,63.05493620499965,l,0.9062724520008487,1,43,3,63.98944873099936,65.49118419799925,,,,,,,,,,,,,,,,,,,,,,,,,,,,,,,,,,,,,,,,,,,,,,,,,,,,,,,,,29784,2022-09-16_10h26.56.074,vts_reward_expectancy,2022.2.4,59.9292494456976,
0,0,0,1,0,0,1,0,star,hexagon,0,0,0,0,0,7,7,11,,,,,,,,,,,,,,,,,,,,,,,,,,,,,,,,,,,,,,,,65.99157851599921,65.99157851599921,65.99157851599921,65.99157851599921,65.99157851599921,65.99157851599921,65.99157851599921,65.99157851599921,65.99157851599921,65.99157851599921,a,0.6405660120008179,10,53,3,66.65899360599997,68.16063626199957,,,,,,,,,,,,,,,,,,,,,,,,,,,,,,,,,,,,,,,,,,,,,,,,,,,,,,,,,29784,2022-09-16_10h26.56.074,vts_reward_expectancy,2022.2.4,59.9292494456976,
1,0,0,0,0,1,0,0,triangle,circle,0,0,0,0,0,8,8,0,,,,,,,,,,,,,,,,,,,,,,,,,,,,,,,,,,,,,,,,68.66122024799915,68.66122024799915,68.66122024799915,68.66122024799915,68.66122024799915,68.66122024799915,68.66122024799915,68.66122024799915,68.66122024799915,68.66122024799915,a,1.474846126000557,1,54,3,70.16277518099923,71.66467090399965,,,,,,,,,,,,,,,,,,,,,,,,,,,,,,,,,,,,,,,,,,,,,,,,,,,,,,,,,29784,2022-09-16_10h26.56.074,vts_reward_expectancy,2022.2.4,59.9292494456976,
0,1,0,0,1,0,0,0,circle,triangle,0,0,0,0,0,9,9,3,,,,,,,,,,,,,,,,,,,,,,,,,,,,,,,,,,,,,,,,72.16498282099928,72.16498282099928,72.16498282099928,72.16498282099928,72.16498282099928,72.16498282099928,72.16498282099928,72.16498282099928,72.16498282099928,72.16498282099928,l,2.0521000290009397,1,55,3,74.23402691899992,75.73560923699915,,,,,,,,,,,,,,,,,,,,,,,,,,,,,,,,,,,,,,,,,,,,,,,,,,,,,,,,,29784,2022-09-16_10h26.56.074,vts_reward_expectancy,2022.2.4,59.9292494456976,
0,0,0,1,0,1,0,0,star ,circle,0,0,0,0,0,10,10,10,,,,,,,,,,,,,,,,,,,,,,,,,,,,,,,,,,,,,,,,76.23612188599964,76.23612188599964,76.23612188599964,76.23612188599964,76.23612188599964,76.23612188599964,76.23612188599964,76.23612188599964,76.23612188599964,76.23612188599964,a,0.6850648410008944,1,56,3,76.95388051400005,78.45535501299946,,,,,,,,,,,,,,,,,,,,,,,,,,,,,,,,,,,,,,,,,,,,,,,,,,,,,,,,,29784,2022-09-16_10h26.56.074,vts_reward_expectancy,2022.2.4,59.9292494456976,
0,0,1,0,0,0,0,1,hexagon,star,0,0,0,0,0,11,11,8,,,,,,,,,,,,,,,,,,,,,,,,,,,,,,,,,,,,,,,,78.95587657099986,78.95587657099986,78.95587657099986,78.95587657099986,78.95587657099986,78.95587657099986,78.95587657099986,78.95587657099986,78.95587657099986,78.95587657099986,l,0.5334133149999616,10,66,3,79.50655077099964,81.00815737799985,,,,,,,,,,,,,,,,,,,,,,,,,,,,,,,,,,,,,,,,,,,,,,,,,,,,,,,,,29784,2022-09-16_10h26.56.074,vts_reward_expectancy,2022.2.4,59.9292494456976,
0,1,0,0,0,0,1,0,circle,hexagon,0,0,0,0,1,0,12,4,,,,,,,,,,,,,,,,,,,,,,,,,,,,,,,,,,,,,,,,81.50869093999972,81.50869093999972,81.50869093999972,81.50869093999972,81.50869093999972,81.50869093999972,81.50869093999972,81.50869093999972,81.50869093999972,81.50869093999972,l,0.9082710450011291,10,76,3,82.44302409299962,83.9447768379996,,,,,,,,,,,,,,,,,,,,,,,,,,,,,,,,,,,,,,,,,,,,,,,,,,,,,,,,,29784,2022-09-16_10h26.56.074,vts_reward_expectancy,2022.2.4,59.9292494456976,
0,1,0,0,1,0,0,0,circle,triangle,0,0,0,0,1,1,13,3,,,,,,,,,,,,,,,,,,,,,,,,,,,,,,,,,,,,,,,,84.44545095299964,84.44545095299964,84.44545095299964,84.44545095299964,84.44545095299964,84.44545095299964,84.44545095299964,84.44545095299964,84.44545095299964,84.44545095299964,l,0.7713632750001125,10,86,3,85.24632080999982,86.74779866299923,,,,,,,,,,,,,,,,,,,,,,,,,,,,,,,,,,,,,,,,,,,,,,,,,,,,,,,,,29784,2022-09-16_10h26.56.074,vts_reward_expectancy,2022.2.4,59.9292494456976,
0,0,1,0,0,1,0,0,hexagon,circle,0,0,0,0,1,2,14,7,,,,,,,,,,,,,,,,,,,,,,,,,,,,,,,,,,,,,,,,87.24848056899918,87.24848056899918,87.24848056899918,87.24848056899918,87.24848056899918,87.24848056899918,87.24848056899918,87.24848056899918,87.24848056899918,87.24848056899918,a,0.6967116530004205,1,87,3,87.96575341799962,89.467470521,,,,,,,,,,,,,,,,,,,,,,,,,,,,,,,,,,,,,,,,,,,,,,,,,,,,,,,,,29784,2022-09-16_10h26.56.074,vts_reward_expectancy,2022.2.4,59.9292494456976,
0,0,0,1,0,1,0,0,star ,circle,0,0,0,0,1,3,15,10,,,,,,,,,,,,,,,,,,,,,,,,,,,,,,,,,,,,,,,,89.96801666899955,89.96801666899955,89.96801666899955,89.96801666899955,89.96801666899955,89.96801666899955,89.96801666899955,89.96801666899955,89.96801666899955,89.96801666899955,l,0.688559284000803,10,97,3,90.68530485499923,92.18719020999924,,,,,,,,,,,,,,,,,,,,,,,,,,,,,,,,,,,,,,,,,,,,,,,,,,,,,,,,,29784,2022-09-16_10h26.56.074,vts_reward_expectancy,2022.2.4,59.9292494456976,
0,0,0,1,1,0,0,0,star,triangle,0,0,0,0,1,4,16,9,,,,,,,,,,,,,,,,,,,,,,,,,,,,,,,,,,,,,,,,92.68760494299931,92.68760494299931,92.68760494299931,92.68760494299931,92.68760494299931,92.68760494299931,92.68760494299931,92.68760494299931,92.68760494299931,92.68760494299931,a,1.1778761000005034,1,98,3,93.88905355299994,95.3907794859997,,,,,,,,,,,,,,,,,,,,,,,,,,,,,,,,,,,,,,,,,,,,,,,,,,,,,,,,,29784,2022-09-16_10h26.56.074,vts_reward_expectancy,2022.2.4,59.9292494456976,
1,0,0,0,0,1,0,0,triangle,circle,0,0,0,0,1,5,17,0,,,,,,,,,,,,,,,,,,,,,,,,,,,,,,,,,,,,,,,,95.89137245099937,95.89137245099937,95.89137245099937,95.89137245099937,95.89137245099937,95.89137245099937,95.89137245099937,95.89137245099937,95.89137245099937,95.89137245099937,a,0.7737971680007831,1,99,3,96.69234976299958,98.19393150499945,,,,,,,,,,,,,,,,,,,,,,,,,,,,,,,,,,,,,,,,,,,,,,,,,,,,,,,,,29784,2022-09-16_10h26.56.074,vts_reward_expectancy,2022.2.4,59.9292494456976,
1,0,0,0,0,0,1,0,triangle,hexagon,0,0,0,0,1,6,18,1,,,,,,,,,,,,,,,,,,,,,,,,,,,,,,,,,,,,,,,,98.69430144099988,98.69430144099988,98.69430144099988,98.69430144099988,98.69430144099988,98.69430144099988,98.69430144099988,98.69430144099988,98.69430144099988,98.69430144099988,l,0.6190442670012999,10,109,3,99.34504999599994,100.84670428299978,,,,,,,,,,,,,,,,,,,,,,,,,,,,,,,,,,,,,,,,,,,,,,,,,,,,,,,,,29784,2022-09-16_10h26.56.074,vts_reward_expectancy,2022.2.4,59.9292494456976,
0,0,1,0,0,0,0,1,hexagon,star,0,0,0,0,1,7,19,8,,,,,,,,,,,,,,,,,,,,,,,,,,,,,,,,,,,,,,,,101.34721153400005,101.34721153400005,101.34721153400005,101.34721153400005,101.34721153400005,101.34721153400005,101.34721153400005,101.34721153400005,101.34721153400005,101.34721153400005,a,1.7185709670002325,10,119,3,103.08242629199958,104.58417733099941,,,,,,,,,,,,,,,,,,,,,,,,,,,,,,,,,,,,,,,,,,,,,,,,,,,,,,,,,29784,2022-09-16_10h26.56.074,vts_reward_expectancy,2022.2.4,59.9292494456976,
0,1,0,0,0,0,0,1,circle,star,0,0,0,0,1,8,20,5,,,,,,,,,,,,,,,,,,,,,,,,,,,,,,,,,,,,,,,,105.08475642299982,105.08475642299982,105.08475642299982,105.08475642299982,105.08475642299982,105.08475642299982,105.08475642299982,105.08475642299982,105.08475642299982,105.08475642299982,a,1.124865390001105,1,120,3,106.23597811199943,107.73729774000003,,,,,,,,,,,,,,,,,,,,,,,,,,,,,,,,,,,,,,,,,,,,,,,,,,,,,,,,,29784,2022-09-16_10h26.56.074,vts_reward_expectancy,2022.2.4,59.9292494456976,
0,0,0,1,0,0,1,0,star,hexagon,0,0,0,0,1,9,21,11,,,,,,,,,,,,,,,,,,,,,,,,,,,,,,,,,,,,,,,,108.23817816899918,108.23817816899918,108.23817816899918,108.23817816899918,108.23817816899918,108.23817816899918,108.23817816899918,108.23817816899918,108.23817816899918,108.23817816899918,a,1.1467581680008152,1,121,3,109.4060636059994,110.90778762799982,,,,,,,,,,,,,,,,,,,,,,,,,,,,,,,,,,,,,,,,,,,,,,,,,,,,,,,,,29784,2022-09-16_10h26.56.074,vts_reward_expectancy,2022.2.4,59.9292494456976,
0,0,1,0,1,0,0,0,hexagon,triangle,0,0,0,0,1,10,22,6,,,,,,,,,,,,,,,,,,,,,,,,,,,,,,,,,,,,,,,,111.40831843999968,111.40831843999968,111.40831843999968,111.40831843999968,111.40831843999968,111.40831843999968,111.40831843999968,111.40831843999968,111.40831843999968,111.40831843999968,l,1.0408428870005082,1,122,3,112.4763052139997,113.97791826499997,,,,,,,,,,,,,,,,,,,,,,,,,,,,,,,,,,,,,,,,,,,,,,,,,,,,,,,,,29784,2022-09-16_10h26.56.074,vts_reward_expectancy,2022.2.4,59.9292494456976,
1,0,0,0,0,0,0,1,triangle,star,0,0,0,0,1,11,23,2,,,,,,,,,,,,,,,,,,,,,,,,,,,,,,,,,,,,,,,,114.47846212399963,114.47846212399963,114.47846212399963,114.47846212399963,114.47846212399963,114.47846212399963,114.47846212399963,114.47846212399963,114.47846212399963,114.47846212399963,l,0.7225171900008718,1,123,3,115.22928568599946,116.73090160299944,,,,,,,,,,,,,,,,,,,,,,,,,,,,,,,,,,,,,,,,,,,,,,,,,,,,,,,,,29784,2022-09-16_10h26.56.074,vts_reward_expectancy,2022.2.4,59.9292494456976,
0,1,0,0,1,0,0,0,circle,triangle,0,0,0,0,2,0,24,3,,,,,,,,,,,,,,,,,,,,,,,,,,,,,,,,,,,,,,,,117.23131209999974,117.23131209999974,117.23131209999974,117.23131209999974,117.23131209999974,117.23131209999974,117.23131209999974,117.23131209999974,117.23131209999974,117.23131209999974,l,1.36100924800121,1,124,3,118.61628820199985,120.11809598999935,,,,,,,,,,,,,,,,,,,,,,,,,,,,,,,,,,,,,,,,,,,,,,,,,,,,,,,,,29784,2022-09-16_10h26.56.074,vts_reward_expectancy,2022.2.4,59.9292494456976,
1,0,0,0,0,0,0,1,triangle,star,0,0,0,0,2,1,25,2,,,,,,,,,,,,,,,,,,,,,,,,,,,,,,,,,,,,,,,,120.61849524899935,120.61849524899935,120.61849524899935,120.61849524899935,120.61849524899935,120.61849524899935,120.61849524899935,120.61849524899935,120.61849524899935,120.61849524899935,a,1.6058914740006003,1,125,3,122.25374629699945,123.75544208599968,,,,,,,,,,,,,,,,,,,,,,,,,,,,,,,,,,,,,,,,,,,,,,,,,,,,,,,,,29784,2022-09-16_10h26.56.074,vts_reward_expectancy,2022.2.4,59.9292494456976,
0,1,0,0,0,0,0,1,circle,star,0,0,0,0,2,2,26,5,,,,,,,,,,,,,,,,,,,,,,,,,,,,,,,,,,,,,,,,124.2559659339995,124.2559659339995,124.2559659339995,124.2559659339995,124.2559659339995,124.2559659339995,124.2559659339995,124.2559659339995,124.2559659339995,124.2559659339995,l,0.7845751440008826,10,135,3,125.07345172999976,126.57496191099926,,,,,,,,,,,,,,,,,,,,,,,,,,,,,,,,,,,,,,,,,,,,,,,,,,,,,,,,,29784,2022-09-16_10h26.56.074,vts_reward_expectancy,2022.2.4,59.9292494456976,
0,1,0,0,0,0,1,0,circle,hexagon,0,0,0,0,2,3,27,4,,,,,,,,,,,,,,,,,,,,,,,,,,,,,,,,,,,,,,,,127.07569103199967,127.07569103199967,127.07569103199967,127.07569103199967,127.07569103199967,127.07569103199967,127.07569103199967,127.07569103199967,127.07569103199967,127.07569103199967,l,0.6283128680006485,1,136,3,127.72632322999925,129.22800344699954,,,,,,,,,,,,,,,,,,,,,,,,,,,,,,,,,,,,,,,,,,,,,,,,,,,,,,,,,29784,2022-09-16_10h26.56.074,vts_reward_expectancy,2022.2.4,59.9292494456976,
0,0,1,0,0,0,0,1,hexagon,star,0,0,0,0,2,4,28,8,,,,,,,,,,,,,,,,,,,,,,,,,,,,,,,,,,,,,,,,129.72864282299997,129.72864282299997,129.72864282299997,129.72864282299997,129.72864282299997,129.72864282299997,129.72864282299997,129.72864282299997,129.72864282299997,129.72864282299997,a,0.7284318700012591,10,146,3,130.47941660599918,131.98111613799938,,,,,,,,,,,,,,,,,,,,,,,,,,,,,,,,,,,,,,,,,,,,,,,,,,,,,,,,,29784,2022-09-16_10h26.56.074,vts_reward_expectancy,2022.2.4,59.9292494456976,
0,0,0,1,0,1,0,0,star ,circle,0,0,0,0,2,5,29,10,,,,,,,,,,,,,,,,,,,,,,,,,,,,,,,,,,,,,,,,132.48162364699965,132.48162364699965,132.48162364699965,132.48162364699965,132.48162364699965,132.48162364699965,132.48162364699965,132.48162364699965,132.48162364699965,132.48162364699965,a,0.7587767540007917,10,156,3,133.26588238399927,134.7674110479993,,,,,,,,,,,,,,,,,,,,,,,,,,,,,,,,,,,,,,,,,,,,,,,,,,,,,,,,,29784,2022-09-16_10h26.56.074,vts_reward_expectancy,2022.2.4,59.9292494456976,
0,0,0,1,0,0,1,0,star,hexagon,0,0,0,0,2,6,30,11,,,,,,,,,,,,,,,,,,,,,,,,,,,,,,,,,,,,,,,,135.26862625099966,135.26862625099966,135.26862625099966,135.26862625099966,135.26862625099966,135.26862625099966,135.26862625099966,135.26862625099966,135.26862625099966,135.26862625099966,a,0.5648306690009122,1,157,3,135.8520087929992,137.35384452699964,,,,,,,,,,,,,,,,,,,,,,,,,,,,,,,,,,,,,,,,,,,,,,,,,,,,,,,,,29784,2022-09-16_10h26.56.074,vts_reward_expectancy,2022.2.4,59.9292494456976,
0,0,1,0,1,0,0,0,hexagon,triangle,0,0,0,0,2,7,31,6,,,,,,,,,,,,,,,,,,,,,,,,,,,,,,,,,,,,,,,,137.85432572199988,137.85432572199988,137.85432572199988,137.85432572199988,137.85432572199988,137.85432572199988,137.85432572199988,137.85432572199988,137.85432572199988,137.85432572199988,a,0.6748852240007182,1,158,3,138.55495892699946,140.05663668999932,,,,,,,,,,,,,,,,,,,,,,,,,,,,,,,,,,,,,,,,,,,,,,,,,,,,,,,,,29784,2022-09-16_10h26.56.074,vts_reward_expectancy,2022.2.4,59.9292494456976,
1,0,0,0,0,1,0,0,triangle,circle,0,0,0,0,2,8,32,0,,,,,,,,,,,,,,,,,,,,,,,,,,,,,,,,,,,,,,,,140.55716904399924,140.55716904399924,140.55716904399924,140.55716904399924,140.55716904399924,140.55716904399924,140.55716904399924,140.55716904399924,140.55716904399924,140.55716904399924,l,0.31586377000076027,1,159,3,140.8909253489992,142.39251302399953,,,,,,,,,,,,,,,,,,,,,,,,,,,,,,,,,,,,,,,,,,,,,,,,,,,,,,,,,29784,2022-09-16_10h26.56.074,vts_reward_expectancy,2022.2.4,59.9292494456976,
0,0,1,0,0,1,0,0,hexagon,circle,0,0,0,0,2,9,33,7,,,,,,,,,,,,,,,,,,,,,,,,,,,,,,,,,,,,,,,,142.89314794499933,142.89314794499933,142.89314794499933,142.89314794499933,142.89314794499933,142.89314794499933,142.89314794499933,142.89314794499933,142.89314794499933,142.89314794499933,a,0.2760907470001257,1,160,3,143.19357769899943,144.69509815999936,,,,,,,,,,,,,,,,,,,,,,,,,,,,,,,,,,,,,,,,,,,,,,,,,,,,,,,,,29784,2022-09-16_10h26.56.074,vts_reward_expectancy,2022.2.4,59.9292494456976,
1,0,0,0,0,0,1,0,triangle,hexagon,0,0,0,0,2,10,34,1,,,,,,,,,,,,,,,,,,,,,,,,,,,,,,,,,,,,,,,,145.19562803099961,145.19562803099961,145.19562803099961,145.19562803099961,145.19562803099961,145.19562803099961,145.19562803099961,145.19562803099961,145.19562803099961,145.19562803099961,l,0.5657488910010215,10,170,3,145.7796453739993,147.28130553499977,,,,,,,,,,,,,,,,,,,,,,,,,,,,,,,,,,,,,,,,,,,,,,,,,,,,,,,,,29784,2022-09-16_10h26.56.074,vts_reward_expectancy,2022.2.4,59.9292494456976,
0,0,0,1,1,0,0,0,star,triangle,0,0,0,0,2,11,35,9,,,,,,,,,,,,,,,,,,,,,,,,,,,,,,,,,,,,,,,,147.78174391899938,147.78174391899938,147.78174391899938,147.78174391899938,147.78174391899938,147.78174391899938,147.78174391899938,147.78174391899938,147.78174391899938,147.78174391899938,a,0.3234273560010479,1,171,3,148.13233621199925,149.63388035199932,,,,,,,,,,,,,,,,,,,,,,,,,,,,,,,,,,,,,,,,,,,,,,,,,,,,,,,,,29784,2022-09-16_10h26.56.074,vts_reward_expectancy,2022.2.4,59.9292494456976,
0,0,1,0,0,0,0,1,hexagon,star,1,0,1,0,0,0,0,8,,,,,,,,,,,,,,,,,,,,,,,,,,,,,,,,,,,,,,,,154.32882629599953,154.32882629599953,154.32882629599953,154.32882629599953,154.32882629599953,154.32882629599953,154.32882629599953,154.32882629599953,154.32882629599953,154.32882629599953,l,0.8235519120007666,1,172,4,155.1733751039992,156.67500061699957,,,,,,,,,,,,,,,,,,,,,,,,,,,,,,,,,,,,,,,,,,,,,,,,,,,,,,,,,29784,2022-09-16_10h26.56.074,vts_reward_expectancy,2022.2.4,59.9292494456976,
0,0,1,0,0,1,0,0,hexagon,circle,1,0,1,0,0,1,1,7,,,,,,,,,,,,,,,,,,,,,,,,,,,,,,,,,,,,,,,,157.17558030599957,157.17558030599957,157.17558030599957,157.17558030599957,157.17558030599957,157.17558030599957,157.17558030599957,157.17558030599957,157.17558030599957,157.17558030599957,a,0.16073392200087255,10,182,4,157.35905162699964,158.86068974799946,,,,,,,,,,,,,,,,,,,,,,,,,,,,,,,,,,,,,,,,,,,,,,,,,,,,,,,,,29784,2022-09-16_10h26.56.074,vts_reward_expectancy,2022.2.4,59.9292494456976,
1,0,0,0,0,0,0,1,triangle,star,1,0,1,0,0,2,2,2,,,,,,,,,,,,,,,,,,,,,,,,,,,,,,,,,,,,,,,,159.36122585299927,159.36122585299927,159.36122585299927,159.36122585299927,159.36122585299927,159.36122585299927,159.36122585299927,159.36122585299927,159.36122585299927,159.36122585299927,l,0.23211140900002647,1,183,4,159.61152405099983,161.11326172600002,,,,,,,,,,,,,,,,,,,,,,,,,,,,,,,,,,,,,,,,,,,,,,,,,,,,,,,,,29784,2022-09-16_10h26.56.074,vts_reward_expectancy,2022.2.4,59.9292494456976,
0,0,0,1,0,0,1,0,star,hexagon,1,0,1,0,0,3,3,11,,,,,,,,,,,,,,,,,,,,,,,,,,,,,,,,,,,,,,,,161.61369762599952,161.61369762599952,161.61369762599952,161.61369762599952,161.61369762599952,161.61369762599952,161.61369762599952,161.61369762599952,161.61369762599952,161.61369762599952,a,0.6266153720007424,1,184,4,162.2644237479999,163.76608128099997,,,,,,,,,,,,,,,,,,,,,,,,,,,,,,,,,,,,,,,,,,,,,,,,,,,,,,,,,29784,2022-09-16_10h26.56.074,vts_reward_expectancy,2022.2.4,59.9292494456976,
0,0,0,1,0,1,0,0,star ,circle,1,0,1,0,0,4,4,10,,,,,,,,,,,,,,,,,,,,,,,,,,,,,,,,,,,,,,,,164.26645373199972,164.26645373199972,164.26645373199972,164.26645373199972,164.26645373199972,164.26645373199972,164.26645373199972,164.26645373199972,164.26645373199972,164.26645373199972,a,1.0223780160004026,1,185,4,165.31794916299987,166.81951559199933,,,,,,,,,,,,,,,,,,,,,,,,,,,,,,,,,,,,,,,,,,,,,,,,,,,,,,,,,29784,2022-09-16_10h26.56.074,vts_reward_expectancy,2022.2.4,59.9292494456976,
0,0,1,0,1,0,0,0,hexagon,triangle,1,0,1,0,0,5,5,6,,,,,,,,,,,,,,,,,,,,,,,,,,,,,,,,,,,,,,,,167.3200654429993,167.3200654429993,167.3200654429993,167.3200654429993,167.3200654429993,167.3200654429993,167.3200654429993,167.3200654429993,167.3200654429993,167.3200654429993,l,0.48913703100060957,1,186,4,167.8374207859997,169.3390092539994,,,,,,,,,,,,,,,,,,,,,,,,,,,,,,,,,,,,,,,,,,,,,,,,,,,,,,,,,29784,2022-09-16_10h26.56.074,vts_reward_expectancy,2022.2.4,59.9292494456976,
1,0,0,0,0,0,1,0,triangle,hexagon,1,0,1,0,0,6,6,1,,,,,,,,,,,,,,,,,,,,,,,,,,,,,,,,,,,,,,,,169.8395061629999,169.8395061629999,169.8395061629999,169.8395061629999,169.8395061629999,169.8395061629999,169.8395061629999,169.8395061629999,169.8395061629999,169.8395061629999,l,0.6899128570003086,10,196,4,170.55700205799985,172.05864168599965,,,,,,,,,,,,,,,,,,,,,,,,,,,,,,,,,,,,,,,,,,,,,,,,,,,,,,,,,29784,2022-09-16_10h26.56.074,vts_reward_expectancy,2022.2.4,59.9292494456976,
1,0,0,0,0,1,0,0,triangle,circle,1,0,1,0,0,7,7,0,,,,,,,,,,,,,,,,,,,,,,,,,,,,,,,,,,,,,,,,172.55910725099966,172.55910725099966,172.55910725099966,172.55910725099966,172.55910725099966,172.55910725099966,172.55910725099966,172.55910725099966,172.55910725099966,172.55910725099966,a,0.7538311170010275,1,197,4,173.34329924199938,174.84493942299923,,,,,,,,,,,,,,,,,,,,,,,,,,,,,,,,,,,,,,,,,,,,,,,,,,,,,,,,,29784,2022-09-16_10h26.56.074,vts_reward_expectancy,2022.2.4,59.9292494456976,
0,1,0,0,1,0,0,0,circle,triangle,1,0,1,0,0,8,8,3,,,,,,,,,,,,,,,,,,,,,,,,,,,,,,,,,,,,,,,,175.34545418699963,175.34545418699963,175.34545418699963,175.34545418699963,175.34545418699963,175.34545418699963,175.34545418699963,175.34545418699963,175.34545418699963,175.34545418699963,l,0.9188624490006987,1,198,4,176.296764961,177.79817480399925,,,,,,,,,,,,,,,,,,,,,,,,,,,,,,,,,,,,,,,,,,,,,,,,,,,,,,,,,29784,2022-09-16_10h26.56.074,vts_reward_expectancy,2022.2.4,59.9292494456976,
0,1,0,0,0,0,1,0,circle,hexagon,1,0,1,0,0,9,9,4,,,,,,,,,,,,,,,,,,,,,,,,,,,,,,,,,,,,,,,,178.2987625729993,178.2987625729993,178.2987625729993,178.2987625729993,178.2987625729993,178.2987625729993,178.2987625729993,178.2987625729993,178.2987625729993,178.2987625729993,l,0.7259237590005796,10,208,4,179.04966861199955,180.551375389,,,,,,,,,,,,,,,,,,,,,,,,,,,,,,,,,,,,,,,,,,,,,,,,,,,,,,,,,29784,2022-09-16_10h26.56.074,vts_reward_expectancy,2022.2.4,59.9292494456976,
0,0,0,1,1,0,0,0,star,triangle,1,0,1,0,0,10,10,9,,,,,,,,,,,,,,,,,,,,,,,,,,,,,,,,,,,,,,,,181.0517948179995,181.0517948179995,181.0517948179995,181.0517948179995,181.0517948179995,181.0517948179995,181.0517948179995,181.0517948179995,181.0517948179995,181.0517948179995,a,0.5495537510005306,10,218,4,181.61929384799987,183.12077045999922,,,,,,,,,,,,,,,,,,,,,,,,,,,,,,,,,,,,,,,,,,,,,,,,,,,,,,,,,29784,2022-09-16_10h26.56.074,vts_reward_expectancy,2022.2.4,59.9292494456976,
0,1,0,0,0,0,0,1,circle,star,1,0,1,0,0,11,11,5,,,,,,,,,,,,,,,,,,,,,,,,,,,,,,,,,,,,,,,,183.62134430699916,183.62134430699916,183.62134430699916,183.62134430699916,183.62134430699916,183.62134430699916,183.62134430699916,183.62134430699916,183.62134430699916,183.62134430699916,l,0.57943356800115,1,219,4,184.22192535799968,185.72367740999925,,,,,,,,,,,,,,,,,,,,,,,,,,,,,,,,,,,,,,,,,,,,,,,,,,,,,,,,,29784,2022-09-16_10h26.56.074,vts_reward_expectancy,2022.2.4,59.9292494456976,
0,0,0,1,1,0,0,0,star,triangle,1,0,1,0,1,0,12,9,,,,,,,,,,,,,,,,,,,,,,,,,,,,,,,,,,,,,,,,186.2243034209996,186.2243034209996,186.2243034209996,186.2243034209996,186.2243034209996,186.2243034209996,186.2243034209996,186.2243034209996,186.2243034209996,186.2243034209996,a,1.1851206280007318,1,220,4,187.44220224699984,188.94388200199955,,,,,,,,,,,,,,,,,,,,,,,,,,,,,,,,,,,,,,,,,,,,,,,,,,,,,,,,,29784,2022-09-16_10h26.56.074,vts_reward_expectancy,2022.2.4,59.9292494456976,
0,1,0,0,0,0,0,1,circle,star,1,0,1,0,1,1,13,5,,,,,,,,,,,,,,,,,,,,,,,,,,,,,,,,,,,,,,,,189.44442491599966,189.44442491599966,189.44442491599966,189.44442491599966,189.44442491599966,189.44442491599966,189.44442491599966,189.44442491599966,189.44442491599966,189.44442491599966,l,0.5006250390006244,10,230,4,189.9616022199998,191.4633161519996,,,,,,,,,,,,,,,,,,,,,,,,,,,,,,,,,,,,,,,,,,,,,,,,,,,,,,,,,29784,2022-09-16_10h26.56.074,vts_reward_expectancy,2022.2.4,59.9292494456976,
0,1,0,0,1,0,0,0,circle,triangle,1,0,1,0,1,2,14,3,,,,,,,,,,,,,,,,,,,,,,,,,,,,,,,,,,,,,,,,191.96383132399933,191.96383132399933,191.96383132399933,191.96383132399933,191.96383132399933,191.96383132399933,191.96383132399933,191.96383132399933,191.96383132399933,191.96383132399933,a,0.6605384720005532,10,240,4,192.647904509,194.1496849919995,,,,,,,,,,,,,,,,,,,,,,,,,,,,,,,,,,,,,,,,,,,,,,,,,,,,,,,,,29784,2022-09-16_10h26.56.074,vts_reward_expectancy,2022.2.4,59.9292494456976,
0,0,1,0,0,0,0,1,hexagon,star,1,0,1,0,1,3,15,8,,,,,,,,,,,,,,,,,,,,,,,,,,,,,,,,,,,,,,,,194.650208131,194.650208131,194.650208131,194.650208131,194.650208131,194.650208131,194.650208131,194.650208131,194.650208131,194.650208131,a,1.1512268180013052,10,250,4,195.81817623999996,197.3198337699996,,,,,,,,,,,,,,,,,,,,,,,,,,,,,,,,,,,,,,,,,,,,,,,,,,,,,,,,,29784,2022-09-16_10h26.56.074,vts_reward_expectancy,2022.2.4,59.9292494456976,
0,0,1,0,0,1,0,0,hexagon,circle,1,0,1,0,1,4,16,7,,,,,,,,,,,,,,,,,,,,,,,,,,,,,,,,,,,,,,,,197.82032661299945,197.82032661299945,197.82032661299945,197.82032661299945,197.82032661299945,197.82032661299945,197.82032661299945,197.82032661299945,197.82032661299945,197.82032661299945,l,1.6123566030009897,10,260,4,199.45567391299937,200.95713936899938,,,,,,,,,,,,,,,,,,,,,,,,,,,,,,,,,,,,,,,,,,,,,,,,,,,,,,,,,29784,2022-09-16_10h26.56.074,vts_reward_expectancy,2022.2.4,59.9292494456976,
0,0,1,0,1,0,0,0,hexagon,triangle,1,0,1,0,1,5,17,6,,,,,,,,,,,,,,,,,,,,,,,,,,,,,,,,,,,,,,,,201.4576210919995,201.4576210919995,201.4576210919995,201.4576210919995,201.4576210919995,201.4576210919995,201.4576210919995,201.4576210919995,201.4576210919995,201.4576210919995,a,0.6315129300010085,10,270,4,202.10846185099945,203.61009519799973,,,,,,,,,,,,,,,,,,,,,,,,,,,,,,,,,,,,,,,,,,,,,,,,,,,,,,,,,29784,2022-09-16_10h26.56.074,vts_reward_expectancy,2022.2.4,59.9292494456976,
0,0,0,1,0,1,0,0,star ,circle,1,0,1,0,1,6,18,10,,,,,,,,,,,,,,,,,,,,,,,,,,,,,,,,,,,,,,,,204.11066415299956,204.11066415299956,204.11066415299956,204.11066415299956,204.11066415299956,204.11066415299956,204.11066415299956,204.11066415299956,204.11066415299956,204.11066415299956,l,0.6017833920004705,10,280,4,204.7448334819992,206.2464315699999,,,,,,,,,,,,,,,,,,,,,,,,,,,,,,,,,,,,,,,,,,,,,,,,,,,,,,,,,29784,2022-09-16_10h26.56.074,vts_reward_expectancy,2022.2.4,59.9292494456976,
1,0,0,0,0,1,0,0,triangle,circle,1,0,1,0,1,7,19,0,,,,,,,,,,,,,,,,,,,,,,,,,,,,,,,,,,,,,,,,206.74696747099915,206.74696747099915,206.74696747099915,206.74696747099915,206.74696747099915,206.74696747099915,206.74696747099915,206.74696747099915,206.74696747099915,206.74696747099915,l,0.9410914390000471,10,290,4,207.7146622119999,209.21620702499968,,,,,,,,,,,,,,,,,,,,,,,,,,,,,,,,,,,,,,,,,,,,,,,,,,,,,,,,,29784,2022-09-16_10h26.56.074,vts_reward_expectancy,2022.2.4,59.9292494456976,
1,0,0,0,0,0,1,0,triangle,hexagon,1,0,1,0,1,8,20,1,,,,,,,,,,,,,,,,,,,,,,,,,,,,,,,,,,,,,,,,209.71688174299925,209.71688174299925,209.71688174299925,209.71688174299925,209.71688174299925,209.71688174299925,209.71688174299925,209.71688174299925,209.71688174299925,209.71688174299925,l,2.668954723000752,10,300,4,212.40321015999962,213.90477128199927,,,,,,,,,,,,,,,,,,,,,,,,,,,,,,,,,,,,,,,,,,,,,,,,,,,,,,,,,29784,2022-09-16_10h26.56.074,vts_reward_expectancy,2022.2.4,59.9292494456976,
1,0,0,0,0,0,0,1,triangle,star,1,0,1,0,1,9,21,2,,,,,,,,,,,,,,,,,,,,,,,,,,,,,,,,,,,,,,,,214.40528591899965,214.40528591899965,214.40528591899965,214.40528591899965,214.40528591899965,214.40528591899965,214.40528591899965,214.40528591899965,214.40528591899965,214.40528591899965,a,0.8677344000006997,1,301,4,215.28963461999956,216.7912985109997,,,,,,,,,,,,,,,,,,,,,,,,,,,,,,,,,,,,,,,,,,,,,,,,,,,,,,,,,29784,2022-09-16_10h26.56.074,vts_reward_expectancy,2022.2.4,59.9292494456976,
0,1,0,0,0,0,1,0,circle,hexagon,1,0,1,0,1,10,22,4,,,,,,,,,,,,,,,,,,,,,,,,,,,,,,,,,,,,,,,,217.29174785399937,217.29174785399937,217.29174785399937,217.29174785399937,217.29174785399937,217.29174785399937,217.29174785399937,217.29174785399937,217.29174785399937,217.29174785399937,l,0.6685087930009104,10,311,4,217.9925544129992,219.49389447299927,,,,,,,,,,,,,,,,,,,,,,,,,,,,,,,,,,,,,,,,,,,,,,,,,,,,,,,,,29784,2022-09-16_10h26.56.074,vts_reward_expectancy,2022.2.4,59.9292494456976,
0,0,0,1,0,0,1,0,star,hexagon,1,0,1,0,1,11,23,11,,,,,,,,,,,,,,,,,,,,,,,,,,,,,,,,,,,,,,,,219.994804983,219.994804983,219.994804983,219.994804983,219.994804983,219.994804983,219.994804983,219.994804983,219.994804983,219.994804983,l,0.846261821000553,10,321,4,220.86246625700005,222.36419922299956,,,,,,,,,,,,,,,,,,,,,,,,,,,,,,,,,,,,,,,,,,,,,,,,,,,,,,,,,29784,2022-09-16_10h26.56.074,vts_reward_expectancy,2022.2.4,59.9292494456976,
0,1,0,0,0,0,0,1,circle,star,1,0,1,0,2,0,24,5,,,,,,,,,,,,,,,,,,,,,,,,,,,,,,,,,,,,,,,,222.86464184999932,222.86464184999932,222.86464184999932,222.86464184999932,222.86464184999932,222.86464184999932,222.86464184999932,222.86464184999932,222.86464184999932,222.86464184999932,a,0.504190266000478,10,331,4,223.3986094009997,224.90006810499926,,,,,,,,,,,,,,,,,,,,,,,,,,,,,,,,,,,,,,,,,,,,,,,,,,,,,,,,,29784,2022-09-16_10h26.56.074,vts_reward_expectancy,2022.2.4,59.9292494456976,
1,0,0,0,0,0,0,1,triangle,star,1,0,1,0,2,1,25,2,,,,,,,,,,,,,,,,,,,,,,,,,,,,,,,,,,,,,,,,225.40062597399992,225.40062597399992,225.40062597399992,225.40062597399992,225.40062597399992,225.40062597399992,225.40062597399992,225.40062597399992,225.40062597399992,225.40062597399992,a,0.7287479269998585,10,341,4,226.15152088299965,227.65313630299988,,,,,,,,,,,,,,,,,,,,,,,,,,,,,,,,,,,,,,,,,,,,,,,,,,,,,,,,,29784,2022-09-16_10h26.56.074,vts_reward_expectancy,2022.2.4,59.9292494456976,
0,0,0,1,0,0,1,0,star,hexagon,1,0,1,0,2,2,26,11,,,,,,,,,,,,,,,,,,,,,,,,,,,,,,,,,,,,,,,,228.15375911299998,228.15375911299998,228.15375911299998,228.15375911299998,228.15375911299998,228.15375911299998,228.15375911299998,228.15375911299998,228.15375911299998,228.15375911299998,l,0.6155303380000987,10,351,4,228.78691792599966,230.2895425759998,,,,,,,,,,,,,,,,,,,,,,,,,,,,,,,,,,,,,,,,,,,,,,,,,,,,,,,,,29784,2022-09-16_10h26.56.074,vts_reward_expectancy,2022.2.4,59.9292494456976,
0,0,1,0,0,0,0,1,hexagon,star,1,0,1,0,2,3,27,8,,,,,,,,,,,,,,,,,,,,,,,,,,,,,,,,,,,,,,,,230.790140866,230.790140866,230.790140866,230.790140866,230.790140866,230.790140866,230.790140866,230.790140866,230.790140866,230.790140866,a,0.6108719690009821,10,361,4,231.42399296799977,232.92562898399956,,,,,,,,,,,,,,,,,,,,,,,,,,,,,,,,,,,,,,,,,,,,,,,,,,,,,,,,,29784,2022-09-16_10h26.56.074,vts_reward_expectancy,2022.2.4,59.9292494456976,
1,0,0,0,0,1,0,0,triangle,circle,1,0,1,0,2,4,28,0,,,,,,,,,,,,,,,,,,,,,,,,,,,,,,,,,,,,,,,,233.42628816399974,233.42628816399974,233.42628816399974,233.42628816399974,233.42628816399974,233.42628816399974,233.42628816399974,233.42628816399974,233.42628816399974,233.42628816399974,l,0.591034209001009,10,371,4,234.04356279199965,235.5452584729992,,,,,,,,,,,,,,,,,,,,,,,,,,,,,,,,,,,,,,,,,,,,,,,,,,,,,,,,,29784,2022-09-16_10h26.56.074,vts_reward_expectancy,2022.2.4,59.9292494456976,
0,0,0,1,1,0,0,0,star,triangle,1,0,1,0,2,5,29,9,,,,,,,,,,,,,,,,,,,,,,,,,,,,,,,,,,,,,,,,236.04592414299987,236.04592414299987,236.04592414299987,236.04592414299987,236.04592414299987,236.04592414299987,236.04592414299987,236.04592414299987,236.04592414299987,236.04592414299987,l,0.7551750910006376,10,381,4,236.83001083199997,238.33167133400002,,,,,,,,,,,,,,,,,,,,,,,,,,,,,,,,,,,,,,,,,,,,,,,,,,,,,,,,,29784,2022-09-16_10h26.56.074,vts_reward_expectancy,2022.2.4,59.9292494456976,
0,1,0,0,1,0,0,0,circle,triangle,1,0,1,0,2,6,30,3,,,,,,,,,,,,,,,,,,,,,,,,,,,,,,,,,,,,,,,,238.83232016500006,238.83232016500006,238.83232016500006,238.83232016500006,238.83232016500006,238.83232016500006,238.83232016500006,238.83232016500006,238.83232016500006,238.83232016500006,a,1.249727059000179,10,391,4,240.10029367799962,241.60197751299984,,,,,,,,,,,,,,,,,,,,,,,,,,,,,,,,,,,,,,,,,,,,,,,,,,,,,,,,,29784,2022-09-16_10h26.56.074,vts_reward_expectancy,2022.2.4,59.9292494456976,
1,0,0,0,0,0,1,0,triangle,hexagon,1,0,1,0,2,7,31,1,,,,,,,,,,,,,,,,,,,,,,,,,,,,,,,,,,,,,,,,242.10254588599946,242.10254588599946,242.10254588599946,242.10254588599946,242.10254588599946,242.10254588599946,242.10254588599946,242.10254588599946,242.10254588599946,242.10254588599946,l,1.338361798000733,10,401,4,243.47073363699928,244.9723012909999,,,,,,,,,,,,,,,,,,,,,,,,,,,,,,,,,,,,,,,,,,,,,,,,,,,,,,,,,29784,2022-09-16_10h26.56.074,vts_reward_expectancy,2022.2.4,59.9292494456976,
0,1,0,0,0,0,1,0,circle,hexagon,1,0,1,0,2,8,32,4,,,,,,,,,,,,,,,,,,,,,,,,,,,,,,,,,,,,,,,,245.47271294299935,245.47271294299935,245.47271294299935,245.47271294299935,245.47271294299935,245.47271294299935,245.47271294299935,245.47271294299935,245.47271294299935,245.47271294299935,a,1.0245946470004128,10,411,4,246.52396897699964,248.0255922209999,,,,,,,,,,,,,,,,,,,,,,,,,,,,,,,,,,,,,,,,,,,,,,,,,,,,,,,,,29784,2022-09-16_10h26.56.074,vts_reward_expectancy,2022.2.4,59.9292494456976,
0,0,1,0,0,1,0,0,hexagon,circle,1,0,1,0,2,9,33,7,,,,,,,,,,,,,,,,,,,,,,,,,,,,,,,,,,,,,,,,248.5261456849994,248.5261456849994,248.5261456849994,248.5261456849994,248.5261456849994,248.5261456849994,248.5261456849994,248.5261456849994,248.5261456849994,248.5261456849994,l,0.9789058730011675,1,412,4,249.52736267699947,251.0290654069995,,,,,,,,,,,,,,,,,,,,,,,,,,,,,,,,,,,,,,,,,,,,,,,,,,,,,,,,,29784,2022-09-16_10h26.56.074,vts_reward_expectancy,2022.2.4,59.9292494456976,
0,0,1,0,1,0,0,0,hexagon,triangle,1,0,1,0,2,10,34,6,,,,,,,,,,,,,,,,,,,,,,,,,,,,,,,,,,,,,,,,251.52865278299942,251.52865278299942,251.52865278299942,251.52865278299942,251.52865278299942,251.52865278299942,251.52865278299942,251.52865278299942,251.52865278299942,251.52865278299942,a,0.7762021670005197,1,413,4,252.3308528889993,253.83233001999997,,,,,,,,,,,,,,,,,,,,,,,,,,,,,,,,,,,,,,,,,,,,,,,,,,,,,,,,,29784,2022-09-16_10h26.56.074,vts_reward_expectancy,2022.2.4,59.9292494456976,
0,0,0,1,0,1,0,0,star ,circle,1,0,1,0,2,11,35,10,,,,,,,,,,,,,,,,,,,,,,,,,,,,,,,,,,,,,,,,254.33268364599917,254.33268364599917,254.33268364599917,254.33268364599917,254.33268364599917,254.33268364599917,254.33268364599917,254.33268364599917,254.33268364599917,254.33268364599917,l,0.8756498920010927,10,423,4,255.23364806299924,256.73540525599947,,,,,,,,,,,,,,,,,,,,,,,,,,,,,,,,,,,,,,,,,,,,,,,,,,,,,,,,,29784,2022-09-16_10h26.56.074,vts_reward_expectancy,2022.2.4,59.9292494456976,
0,0,1,0,0,0,0,1,hexagon,star,2,0,2,0,0,0,0,8,,,,,,,,,,,,,,,,,,,,,,,,,,,,,,,,,,,,,,,,259.76303136499973,259.76303136499973,259.76303136499973,259.76303136499973,259.76303136499973,259.76303136499973,259.76303136499973,259.76303136499973,259.76303136499973,259.76303136499973,a,0.8224086520003766,10,433,5,260.60632237199934,262.1079509149995,,,,,,,,,,,,,,,,,,,,,,,,,,,,,,,,,,,,,,,,,,,,,,,,,,,,,,,,,29784,2022-09-16_10h26.56.074,vts_reward_expectancy,2022.2.4,59.9292494456976,
0,0,0,1,1,0,0,0,star,triangle,2,0,2,0,0,1,1,9,,,,,,,,,,,,,,,,,,,,,,,,,,,,,,,,,,,,,,,,262.60858298399944,262.60858298399944,262.60858298399944,262.60858298399944,262.60858298399944,262.60858298399944,262.60858298399944,262.60858298399944,262.60858298399944,262.60858298399944,l,0.5848196670003745,10,443,5,263.2257320209992,264.727582947,,,,,,,,,,,,,,,,,,,,,,,,,,,,,,,,,,,,,,,,,,,,,,,,,,,,,,,,,29784,2022-09-16_10h26.56.074,vts_reward_expectancy,2022.2.4,59.9292494456976,
0,1,0,0,0,0,0,1,circle,star,2,0,2,0,0,2,2,5,,,,,,,,,,,,,,,,,,,,,,,,,,,,,,,,,,,,,,,,265.2279508869997,265.2279508869997,265.2279508869997,265.2279508869997,265.2279508869997,265.2279508869997,265.2279508869997,265.2279508869997,265.2279508869997,265.2279508869997,a,0.44500728200091544,10,453,5,265.6951711919992,267.1970039809994,,,,,,,,,,,,,,,,,,,,,,,,,,,,,,,,,,,,,,,,,,,,,,,,,,,,,,,,,29784,2022-09-16_10h26.56.074,vts_reward_expectancy,2022.2.4,59.9292494456976,
1,0,0,0,0,0,0,1,triangle,star,2,0,2,0,0,3,3,2,,,,,,,,,,,,,,,,,,,,,,,,,,,,,,,,,,,,,,,,267.69731673599927,267.69731673599927,267.69731673599927,267.69731673599927,267.69731673599927,267.69731673599927,267.69731673599927,267.69731673599927,267.69731673599927,267.69731673599927,a,0.6160598170008598,1,454,5,268.331494002,269.8331120489993,,,,,,,,,,,,,,,,,,,,,,,,,,,,,,,,,,,,,,,,,,,,,,,,,,,,,,,,,29784,2022-09-16_10h26.56.074,vts_reward_expectancy,2022.2.4,59.9292494456976,
1,0,0,0,0,1,0,0,triangle,circle,2,0,2,0,0,4,4,0,,,,,,,,,,,,,,,,,,,,,,,,,,,,,,,,,,,,,,,,270.3336300199999,270.3336300199999,270.3336300199999,270.3336300199999,270.3336300199999,270.3336300199999,270.3336300199999,270.3336300199999,270.3336300199999,270.3336300199999,l,0.5392378280002958,10,464,5,270.90110310899945,272.40254097899924,,,,,,,,,,,,,,,,,,,,,,,,,,,,,,,,,,,,,,,,,,,,,,,,,,,,,,,,,29784,2022-09-16_10h26.56.074,vts_reward_expectancy,2022.2.4,59.9292494456976,
0,1,0,0,0,0,1,0,circle,hexagon,2,0,2,0,0,5,5,4,,,,,,,,,,,,,,,,,,,,,,,,,,,,,,,,,,,,,,,,272.9029615849995,272.9029615849995,272.9029615849995,272.9029615849995,272.9029615849995,272.9029615849995,272.9029615849995,272.9029615849995,272.9029615849995,272.9029615849995,a,0.6574641820006946,10,474,5,273.5873284319996,275.0889200039992,,,,,,,,,,,,,,,,,,,,,,,,,,,,,,,,,,,,,,,,,,,,,,,,,,,,,,,,,29784,2022-09-16_10h26.56.074,vts_reward_expectancy,2022.2.4,59.9292494456976,
0,1,0,0,1,0,0,0,circle,triangle,2,0,2,0,0,6,6,3,,,,,,,,,,,,,,,,,,,,,,,,,,,,,,,,,,,,,,,,275.5894098969993,275.5894098969993,275.5894098969993,275.5894098969993,275.5894098969993,275.5894098969993,275.5894098969993,275.5894098969993,275.5894098969993,275.5894098969993,a,0.6269154030005666,10,484,5,276.2401293159992,277.74176973699923,,,,,,,,,,,,,,,,,,,,,,,,,,,,,,,,,,,,,,,,,,,,,,,,,,,,,,,,,29784,2022-09-16_10h26.56.074,vts_reward_expectancy,2022.2.4,59.9292494456976,
0,0,0,1,0,1,0,0,star ,circle,2,0,2,0,0,7,7,10,,,,,,,,,,,,,,,,,,,,,,,,,,,,,,,,,,,,,,,,278.2423031869994,278.2423031869994,278.2423031869994,278.2423031869994,278.2423031869994,278.2423031869994,278.2423031869994,278.2423031869994,278.2423031869994,278.2423031869994,l,0.46976158000052237,10,494,5,278.74290371999996,280.244538078,,,,,,,,,,,,,,,,,,,,,,,,,,,,,,,,,,,,,,,,,,,,,,,,,,,,,,,,,29784,2022-09-16_10h26.56.074,vts_reward_expectancy,2022.2.4,59.9292494456976,
1,0,0,0,0,0,1,0,triangle,hexagon,2,0,2,0,0,8,8,1,,,,,,,,,,,,,,,,,,,,,,,,,,,,,,,,,,,,,,,,280.7450896379996,280.7450896379996,280.7450896379996,280.7450896379996,280.7450896379996,280.7450896379996,280.7450896379996,280.7450896379996,280.7450896379996,280.7450896379996,a,1.0082585840009415,1,495,5,281.77952365799956,283.2811876079995,,,,,,,,,,,,,,,,,,,,,,,,,,,,,,,,,,,,,,,,,,,,,,,,,,,,,,,,,29784,2022-09-16_10h26.56.074,vts_reward_expectancy,2022.2.4,59.9292494456976,
0,0,1,0,0,1,0,0,hexagon,circle,2,0,2,0,0,9,9,7,,,,,,,,,,,,,,,,,,,,,,,,,,,,,,,,,,,,,,,,283.78170956599934,283.78170956599934,283.78170956599934,283.78170956599934,283.78170956599934,283.78170956599934,283.78170956599934,283.78170956599934,283.78170956599934,283.78170956599934,l,0.6912743490001958,10,505,5,284.49927862499953,286.00094986899967,,,,,,,,,,,,,,,,,,,,,,,,,,,,,,,,,,,,,,,,,,,,,,,,,,,,,,,,,29784,2022-09-16_10h26.56.074,vts_reward_expectancy,2022.2.4,59.9292494456976,
0,0,0,1,0,0,1,0,star,hexagon,2,0,2,0,0,10,10,11,,,,,,,,,,,,,,,,,,,,,,,,,,,,,,,,,,,,,,,,286.5014930139996,286.5014930139996,286.5014930139996,286.5014930139996,286.5014930139996,286.5014930139996,286.5014930139996,286.5014930139996,286.5014930139996,286.5014930139996,l,0.5157676650014764,10,515,5,287.03544432299987,288.5373180639999,,,,,,,,,,,,,,,,,,,,,,,,,,,,,,,,,,,,,,,,,,,,,,,,,,,,,,,,,29784,2022-09-16_10h26.56.074,vts_reward_expectancy,2022.2.4,59.9292494456976,
0,0,1,0,1,0,0,0,hexagon,triangle,2,0,2,0,0,11,11,6,,,,,,,,,,,,,,,,,,,,,,,,,,,,,,,,,,,,,,,,289.0376208889993,289.0376208889993,289.0376208889993,289.0376208889993,289.0376208889993,289.0376208889993,289.0376208889993,289.0376208889993,289.0376208889993,289.0376208889993,a,0.3948149720008587,10,525,5,289.4547974499992,290.9564476589994,,,,,,,,,,,,,,,,,,,,,,,,,,,,,,,,,,,,,,,,,,,,,,,,,,,,,,,,,29784,2022-09-16_10h26.56.074,vts_reward_expectancy,2022.2.4,59.9292494456976,
1,0,0,0,0,1,0,0,triangle,circle,2,0,2,0,1,0,12,0,,,,,,,,,,,,,,,,,,,,,,,,,,,,,,,,,,,,,,,,291.45696334399963,291.45696334399963,291.45696334399963,291.45696334399963,291.45696334399963,291.45696334399963,291.45696334399963,291.45696334399963,291.45696334399963,291.45696334399963,l,0.6479777590011508,10,535,5,292.1245574509994,293.6259868419993,,,,,,,,,,,,,,,,,,,,,,,,,,,,,,,,,,,,,,,,,,,,,,,,,,,,,,,,,29784,2022-09-16_10h26.56.074,vts_reward_expectancy,2022.2.4,59.9292494456976,
1,0,0,0,0,0,0,1,triangle,star,2,0,2,0,1,1,13,2,,,,,,,,,,,,,,,,,,,,,,,,,,,,,,,,,,,,,,,,294.1266648949995,294.1266648949995,294.1266648949995,294.1266648949995,294.1266648949995,294.1266648949995,294.1266648949995,294.1266648949995,294.1266648949995,294.1266648949995,a,0.4832311070003925,1,536,5,294.6270875269993,296.12879036699997,,,,,,,,,,,,,,,,,,,,,,,,,,,,,,,,,,,,,,,,,,,,,,,,,,,,,,,,,29784,2022-09-16_10h26.56.074,vts_reward_expectancy,2022.2.4,59.9292494456976,
0,1,0,0,0,0,0,1,circle,star,2,0,2,0,1,2,14,5,,,,,,,,,,,,,,,,,,,,,,,,,,,,,,,,,,,,,,,,296.62946528999964,296.62946528999964,296.62946528999964,296.62946528999964,296.62946528999964,296.62946528999964,296.62946528999964,296.62946528999964,296.62946528999964,296.62946528999964,a,0.5078837010005373,10,546,5,297.163343448,298.664994492,,,,,,,,,,,,,,,,,,,,,,,,,,,,,,,,,,,,,,,,,,,,,,,,,,,,,,,,,29784,2022-09-16_10h26.56.074,vts_reward_expectancy,2022.2.4,59.9292494456976,
1,0,0,0,0,0,1,0,triangle,hexagon,2,0,2,0,1,3,15,1,,,,,,,,,,,,,,,,,,,,,,,,,,,,,,,,,,,,,,,,299.1655712599995,299.1655712599995,299.1655712599995,299.1655712599995,299.1655712599995,299.1655712599995,299.1655712599995,299.1655712599995,299.1655712599995,299.1655712599995,l,0.4427611370001614,1,547,5,299.63272836799933,301.13440931900004,,,,,,,,,,,,,,,,,,,,,,,,,,,,,,,,,,,,,,,,,,,,,,,,,,,,,,,,,29784,2022-09-16_10h26.56.074,vts_reward_expectancy,2022.2.4,59.9292494456976,
0,0,1,0,0,0,0,1,hexagon,star,2,0,2,0,1,4,16,8,,,,,,,,,,,,,,,,,,,,,,,,,,,,,,,,,,,,,,,,301.6348968789998,301.6348968789998,301.6348968789998,301.6348968789998,301.6348968789998,301.6348968789998,301.6348968789998,301.6348968789998,301.6348968789998,301.6348968789998,a,0.43760183100039285,10,557,5,302.10202367299917,303.6037109829995,,,,,,,,,,,,,,,,,,,,,,,,,,,,,,,,,,,,,,,,,,,,,,,,,,,,,,,,,29784,2022-09-16_10h26.56.074,vts_reward_expectancy,2022.2.4,59.9292494456976,
0,0,1,0,1,0,0,0,hexagon,triangle,2,0,2,0,1,5,17,6,,,,,,,,,,,,,,,,,,,,,,,,,,,,,,,,,,,,,,,,304.10432252400005,304.10432252400005,304.10432252400005,304.10432252400005,304.10432252400005,304.10432252400005,304.10432252400005,304.10432252400005,304.10432252400005,304.10432252400005,a,0.6488747830007924,10,567,5,304.77167028999975,306.2732498969999,,,,,,,,,,,,,,,,,,,,,,,,,,,,,,,,,,,,,,,,,,,,,,,,,,,,,,,,,29784,2022-09-16_10h26.56.074,vts_reward_expectancy,2022.2.4,59.9292494456976,
0,0,0,1,0,1,0,0,star ,circle,2,0,2,0,1,6,18,10,,,,,,,,,,,,,,,,,,,,,,,,,,,,,,,,,,,,,,,,306.7739739379995,306.7739739379995,306.7739739379995,306.7739739379995,306.7739739379995,306.7739739379995,306.7739739379995,306.7739739379995,306.7739739379995,306.7739739379995,l,0.5791314200014313,10,577,5,307.3745559199997,308.87638668,,,,,,,,,,,,,,,,,,,,,,,,,,,,,,,,,,,,,,,,,,,,,,,,,,,,,,,,,29784,2022-09-16_10h26.56.074,vts_reward_expectancy,2022.2.4,59.9292494456976,
0,1,0,0,1,0,0,0,circle,triangle,2,0,2,0,1,7,19,3,,,,,,,,,,,,,,,,,,,,,,,,,,,,,,,,,,,,,,,,309.37687927299976,309.37687927299976,309.37687927299976,309.37687927299976,309.37687927299976,309.37687927299976,309.37687927299976,309.37687927299976,309.37687927299976,309.37687927299976,a,0.5114537880008356,10,587,5,309.9107023629995,311.41248194499985,,,,,,,,,,,,,,,,,,,,,,,,,,,,,,,,,,,,,,,,,,,,,,,,,,,,,,,,,29784,2022-09-16_10h26.56.074,vts_reward_expectancy,2022.2.4,59.9292494456976,
0,0,0,1,1,0,0,0,star,triangle,2,0,2,0,1,8,20,9,,,,,,,,,,,,,,,,,,,,,,,,,,,,,,,,,,,,,,,,311.9128999169998,311.9128999169998,311.9128999169998,311.9128999169998,311.9128999169998,311.9128999169998,311.9128999169998,311.9128999169998,311.9128999169998,311.9128999169998,l,0.6002718970003116,1,588,5,312.53022757300005,314.03186003099927,,,,,,,,,,,,,,,,,,,,,,,,,,,,,,,,,,,,,,,,,,,,,,,,,,,,,,,,,29784,2022-09-16_10h26.56.074,vts_reward_expectancy,2022.2.4,59.9292494456976,
0,0,1,0,0,1,0,0,hexagon,circle,2,0,2,0,1,9,21,7,,,,,,,,,,,,,,,,,,,,,,,,,,,,,,,,,,,,,,,,314.5325986629996,314.5325986629996,314.5325986629996,314.5325986629996,314.5325986629996,314.5325986629996,314.5325986629996,314.5325986629996,314.5325986629996,314.5325986629996,l,0.43610171400086983,10,598,5,314.99955267599944,316.5012375919996,,,,,,,,,,,,,,,,,,,,,,,,,,,,,,,,,,,,,,,,,,,,,,,,,,,,,,,,,29784,2022-09-16_10h26.56.074,vts_reward_expectancy,2022.2.4,59.9292494456976,
0,1,0,0,0,0,1,0,circle,hexagon,2,0,2,0,1,10,22,4,,,,,,,,,,,,,,,,,,,,,,,,,,,,,,,,,,,,,,,,317.001756267,317.001756267,317.001756267,317.001756267,317.001756267,317.001756267,317.001756267,317.001756267,317.001756267,317.001756267,a,0.39085200100089423,1,599,5,317.41886291899937,318.9205986019997,,,,,,,,,,,,,,,,,,,,,,,,,,,,,,,,,,,,,,,,,,,,,,,,,,,,,,,,,29784,2022-09-16_10h26.56.074,vts_reward_expectancy,2022.2.4,59.9292494456976,
0,0,0,1,0,0,1,0,star,hexagon,2,0,2,0,1,11,23,11,,,,,,,,,,,,,,,,,,,,,,,,,,,,,,,,,,,,,,,,319.4211452009995,319.4211452009995,319.4211452009995,319.4211452009995,319.4211452009995,319.4211452009995,319.4211452009995,319.4211452009995,319.4211452009995,319.4211452009995,l,0.38759767900046427,1,600,5,319.8384129269998,321.34004939399983,,,,,,,,,,,,,,,,,,,,,,,,,,,,,,,,,,,,,,,,,,,,,,,,,,,,,,,,,29784,2022-09-16_10h26.56.074,vts_reward_expectancy,2022.2.4,59.9292494456976,
0,0,1,0,1,0,0,0,hexagon,triangle,2,0,2,0,2,0,24,6,,,,,,,,,,,,,,,,,,,,,,,,,,,,,,,,,,,,,,,,321.84056933399916,321.84056933399916,321.84056933399916,321.84056933399916,321.84056933399916,321.84056933399916,321.84056933399916,321.84056933399916,321.84056933399916,321.84056933399916,a,0.43264123200060567,10,610,5,322.29102244599926,323.79270360699957,,,,,,,,,,,,,,,,,,,,,,,,,,,,,,,,,,,,,,,,,,,,,,,,,,,,,,,,,29784,2022-09-16_10h26.56.074,vts_reward_expectancy,2022.2.4,59.9292494456976,
1,0,0,0,0,0,1,0,triangle,hexagon,2,0,2,0,2,1,25,1,,,,,,,,,,,,,,,,,,,,,,,,,,,,,,,,,,,,,,,,324.2931557309994,324.2931557309994,324.2931557309994,324.2931557309994,324.2931557309994,324.2931557309994,324.2931557309994,324.2931557309994,324.2931557309994,324.2931557309994,l,0.37138434300140943,10,620,5,324.69363550099933,326.19526053499976,,,,,,,,,,,,,,,,,,,,,,,,,,,,,,,,,,,,,,,,,,,,,,,,,,,,,,,,,29784,2022-09-16_10h26.56.074,vts_reward_expectancy,2022.2.4,59.9292494456976,
0,0,0,1,0,0,1,0,star,hexagon,2,0,2,0,2,2,26,11,,,,,,,,,,,,,,,,,,,,,,,,,,,,,,,,,,,,,,,,326.69579561799947,326.69579561799947,326.69579561799947,326.69579561799947,326.69579561799947,326.69579561799947,326.69579561799947,326.69579561799947,326.69579561799947,326.69579561799947,l,0.4335658540003351,10,630,5,327.14634096199916,328.64800654400005,,,,,,,,,,,,,,,,,,,,,,,,,,,,,,,,,,,,,,,,,,,,,,,,,,,,,,,,,29784,2022-09-16_10h26.56.074,vts_reward_expectancy,2022.2.4,59.9292494456976,
0,1,0,0,0,0,1,0,circle,hexagon,2,0,2,0,2,3,27,4,,,,,,,,,,,,,,,,,,,,,,,,,,,,,,,,,,,,,,,,329.1484459939993,329.1484459939993,329.1484459939993,329.1484459939993,329.1484459939993,329.1484459939993,329.1484459939993,329.1484459939993,329.1484459939993,329.1484459939993,a,0.8760950080004477,1,631,5,330.04958106899994,331.5511525439997,,,,,,,,,,,,,,,,,,,,,,,,,,,,,,,,,,,,,,,,,,,,,,,,,,,,,,,,,29784,2022-09-16_10h26.56.074,vts_reward_expectancy,2022.2.4,59.9292494456976,
0,0,1,0,0,0,0,1,hexagon,star,2,0,2,0,2,4,28,8,,,,,,,,,,,,,,,,,,,,,,,,,,,,,,,,,,,,,,,,332.0516815339997,332.0516815339997,332.0516815339997,332.0516815339997,332.0516815339997,332.0516815339997,332.0516815339997,332.0516815339997,332.0516815339997,332.0516815339997,a,0.412936692000585,10,641,5,332.4854436759997,333.9871138259996,,,,,,,,,,,,,,,,,,,,,,,,,,,,,,,,,,,,,,,,,,,,,,,,,,,,,,,,,29784,2022-09-16_10h26.56.074,vts_reward_expectancy,2022.2.4,59.9292494456976,
0,0,0,1,0,1,0,0,star ,circle,2,0,2,0,2,5,29,10,,,,,,,,,,,,,,,,,,,,,,,,,,,,,,,,,,,,,,,,334.4878651599993,334.4878651599993,334.4878651599993,334.4878651599993,334.4878651599993,334.4878651599993,334.4878651599993,334.4878651599993,334.4878651599993,334.4878651599993,l,0.8732490420006798,1,642,5,335.3887382469993,336.89041834099953,,,,,,,,,,,,,,,,,,,,,,,,,,,,,,,,,,,,,,,,,,,,,,,,,,,,,,,,,29784,2022-09-16_10h26.56.074,vts_reward_expectancy,2022.2.4,59.9292494456976,
1,0,0,0,0,1,0,0,triangle,circle,2,0,2,0,2,6,30,0,,,,,,,,,,,,,,,,,,,,,,,,,,,,,,,,,,,,,,,,337.3908942829994,337.3908942829994,337.3908942829994,337.3908942829994,337.3908942829994,337.3908942829994,337.3908942829994,337.3908942829994,337.3908942829994,337.3908942829994,a,1.034693029000664,1,643,5,338.4420408769993,339.94368076799947,,,,,,,,,,,,,,,,,,,,,,,,,,,,,,,,,,,,,,,,,,,,,,,,,,,,,,,,,29784,2022-09-16_10h26.56.074,vts_reward_expectancy,2022.2.4,59.9292494456976,
0,1,0,0,0,0,0,1,circle,star,2,0,2,0,2,7,31,5,,,,,,,,,,,,,,,,,,,,,,,,,,,,,,,,,,,,,,,,340.44435719099965,340.44435719099965,340.44435719099965,340.44435719099965,340.44435719099965,340.44435719099965,340.44435719099965,340.44435719099965,340.44435719099965,340.44435719099965,a,0.4525681290006105,1,644,5,340.928269987,342.42991593399984,,,,,,,,,,,,,,,,,,,,,,,,,,,,,,,,,,,,,,,,,,,,,,,,,,,,,,,,,29784,2022-09-16_10h26.56.074,vts_reward_expectancy,2022.2.4,59.9292494456976,
0,0,0,1,1,0,0,0,star,triangle,2,0,2,0,2,8,32,9,,,,,,,,,,,,,,,,,,,,,,,,,,,,,,,,,,,,,,,,342.93047395399935,342.93047395399935,342.93047395399935,342.93047395399935,342.93047395399935,342.93047395399935,342.93047395399935,342.93047395399935,342.93047395399935,342.93047395399935,l,0.3504324010009441,1,645,5,343.29758797499926,344.79916015399976,,,,,,,,,,,,,,,,,,,,,,,,,,,,,,,,,,,,,,,,,,,,,,,,,,,,,,,,,29784,2022-09-16_10h26.56.074,vts_reward_expectancy,2022.2.4,59.9292494456976,
0,1,0,0,1,0,0,0,circle,triangle,2,0,2,0,2,9,33,3,,,,,,,,,,,,,,,,,,,,,,,,,,,,,,,,,,,,,,,,345.2996133059996,345.2996133059996,345.2996133059996,345.2996133059996,345.2996133059996,345.2996133059996,345.2996133059996,345.2996133059996,345.2996133059996,345.2996133059996,l,1.0289961570006199,1,646,5,346.350765055,347.8524769249998,,,,,,,,,,,,,,,,,,,,,,,,,,,,,,,,,,,,,,,,,,,,,,,,,,,,,,,,,29784,2022-09-16_10h26.56.074,vts_reward_expectancy,2022.2.4,59.9292494456976,
0,0,1,0,0,1,0,0,hexagon,circle,2,0,2,0,2,10,34,7,,,,,,,,,,,,,,,,,,,,,,,,,,,,,,,,,,,,,,,,348.35297786799947,348.35297786799947,348.35297786799947,348.35297786799947,348.35297786799947,348.35297786799947,348.35297786799947,348.35297786799947,348.35297786799947,348.35297786799947,a,0.7031011400013085,1,647,5,349.0871876709998,350.58901204799986,,,,,,,,,,,,,,,,,,,,,,,,,,,,,,,,,,,,,,,,,,,,,,,,,,,,,,,,,29784,2022-09-16_10h26.56.074,vts_reward_expectancy,2022.2.4,59.9292494456976,
1,0,0,0,0,0,0,1,triangle,star,2,0,2,0,2,11,35,2,,,,,,,,,,,,,,,,,,,,,,,,,,,,,,,,,,,,,,,,351.0895366039995,351.0895366039995,351.0895366039995,351.0895366039995,351.0895366039995,351.0895366039995,351.0895366039995,351.0895366039995,351.0895366039995,351.0895366039995,a,0.6396739990004789,1,648,5,351.7568462569998,353.2584184439993,,,,,,,,,,,,,,,,,,,,,,,,,,,,,,,,,,,,,,,,,,,,,,,,,,,,,,,,,29784,2022-09-16_10h26.56.074,vts_reward_expectancy,2022.2.4,59.9292494456976,
,,,,,,,,,,,,,,,,,,0,0,0,0,0,0,0,0,,,,,,,,,,,,,,,,,,,,,,,,,,,,,,,,,,,,,,,,,,,,,,,,369.20939624199946,146,Y,circle,0.002249152000331378,363.2074966479995,364.70438728299996,364.70438728299996,364.70438728299996,367.7077098569998,367.7077098569998,367.7077098569998,367.7077098569998,0,0,None,0,367.7077098569998,369.20939624199946,369.70987832899937,,,,,,,,,,,,,,,,,,,,,,,,,,,,,,,,,,,,,,29784,2022-09-16_10h26.56.074,vts_reward_expectancy,2022.2.4,59.9292494456976,
,,,,,,,,,,,,,,,,,,0,0,0,0,1,0,1,0,,,,,,,,,,,,,,,,,,,,,,,,,,,,,,,,,,,,,,,,,,,,,,,,376.21731256099974,167,D,triangle,0.009320455000306538,370.2074323029992,371.7121124639998,371.7121124639998,371.7121124639998,374.7154920289995,374.7154920289995,374.7154920289995,374.7154920289995,0,1,None,0,374.7154920289995,376.21731256099974,,,,,,,,,,,,,,,,,,,,,,,,,,,,,,,,,,,,,,,29784,2022-09-16_10h26.56.074,vts_reward_expectancy,2022.2.4,59.9292494456976,
,,,,,,,,,,,,,,,,,,0,0,0,0,2,0,2,0,,,,,,,,,,,,,,,,,,,,,,,,,,,,,,,,,,,,,,,,,,,,,,,,383.208104157,174,B,hexagon,0.0008976890003395965,377.2044256269992,378.7031591749992,378.7031591749992,378.7031591749992,381.7066131899992,381.7066131899992,381.7066131899992,381.7066131899992,0,1,None,0,381.7066131899992,383.208104157,383.70871285299927,,,,,,,,,,,,,,,,,,,,,,,,,,,,,,,,,,,,,,29784,2022-09-16_10h26.56.074,vts_reward_expectancy,2022.2.4,59.9292494456976,
,,,,,,,,,,,,,,,,,,0,0,0,0,3,0,3,0,,,,,,,,,,,,,,,,,,,,,,,,,,,,,,,,,,,,,,,,,,,,,,,,390.2158592279993,132,F,star,0.008157977000337269,384.2065840559999,385.71080751299996,385.71080751299996,385.71080751299996,388.7143090699992,388.7143090699992,388.7143090699992,388.7143090699992,0,1,None,0,388.7143090699992,390.2158592279993,390.716431373,,,,,,,,,,,,,,,,,,,,,,,,,,,,,,,,,,,,,,29784,2022-09-16_10h26.56.074,vts_reward_expectancy,2022.2.4,59.9292494456976,
,,,,,,,,,,,,,,,,,,0,0,0,0,4,0,4,0,,,,,,,,,,,,,,,,,,,,,,,,,,,,,,,,,,,,,,,,,,,,,,,,396.77318529499917,125,S,hexagon,-0.00019806099953711964,391.20514629899935,392.7018926609999,392.7018926609999,392.7018926609999,,,,,1,1,d,0,395.2726838259996,,,2.547347771001114,,,,,,,,,,,,,,,,,,,,,,,,,,,,,,,,,,,,,29784,2022-09-16_10h26.56.074,vts_reward_expectancy,2022.2.4,59.9292494456976,
,,,,,,,,,,,,,,,,,,0,0,0,0,5,0,5,0,,,,,,,,,,,,,,,,,,,,,,,,,,,,,,,,,,,,,,,,,,,,,,,,401.1279197919994,139,U,triangle,0.0009370660000058706,397.76296387099956,399.25919177599917,399.25919177599917,399.25919177599917,,,,,1,0,d,0,399.6262931839992,,,0.3420799750010701,,,,,,,,,,,,,,,,,,,,,,,,,,,,,,,,,,,,,29784,2022-09-16_10h26.56.074,vts_reward_expectancy,2022.2.4,59.9292494456976,
,,,,,,,,,,,,,,,,,,0,0,0,0,6,0,6,0,,,,,,,,,,,,,,,,,,,,,,,,,,,,,,,,,,,,,,,,,,,,,,,,405.46594074599943,181,H,circle,0.001532762000351795,402.11806453400004,403.61396937599966,403.61396937599966,403.61396937599966,,,,,2,0,j,0,403.9680041039992,,,0.3312214080006015,,,,,,,,,,,,,,,,,,,,,,,,,,,,,,,,,,,,,29784,2022-09-16_10h26.56.074,vts_reward_expectancy,2022.2.4,59.9292494456976,
,,,,,,,,,,,,,,,,,,0,0,0,0,7,0,7,0,,,,,,,,,,,,,,,,,,,,,,,,,,,,,,,,,,,,,,,,,,,,,,,,410.08769608499915,160,W,star,0.0013783459999103798,406.4528182899994,407.95198279299984,407.95198279299984,407.95198279299984,,,,,0,0,d,0,408.5860748219993,,,0.6018243389999043,,,,,,,,,,,,,,,,,,,,,,,,,,,,,,,,,,,,,29784,2022-09-16_10h26.56.074,vts_reward_expectancy,2022.2.4,59.9292494456976,
,,,,,,,,,,,,,,,,,,0,0,0,0,8,0,8,0,,,,,,,,,,,,,,,,,,,,,,,,,,,,,,,,,,,,,,,,,,,,,,,,415.41039702299986,146,Y,hexagon,0.0017788850000215461,411.0749135059996,412.5737979629994,412.5737979629994,412.5737979629994,,,,,2,1,j,0,413.90862214799927,,,1.3080129750005653,,,,,,,,,,,,,,,,,,,,,,,,,,,,,,,,,,,,,29784,2022-09-16_10h26.56.074,vts_reward_expectancy,2022.2.4,59.9292494456976,
,,,,,,,,,,,,,,,,,,0,0,0,0,9,0,9,0,,,,,,,,,,,,,,,,,,,,,,,,,,,,,,,,,,,,,,,,,,,,,,,,420.4325331379996,167,D,star,0.0017459549999330193,416.39870418199916,417.89640293199955,417.89640293199955,417.89640293199955,,,,,0,0,d,0,418.9308876569994,,,1.0089703850007936,,,,,,,,,,,,,,,,,,,,,,,,,,,,,,,,,,,,,29784,2022-09-16_10h26.56.074,vts_reward_expectancy,2022.2.4,59.9292494456976,
,,,,,,,,,,,,,,,,,,1,0,1,0,0,0,0,0,,,,,,,,,,,,,,,,,,,,,,,,,,,,,,,,,,,,,,,,,,,,,,,,459.79265594999924,132,W,hexagon,0.001903740999296133,455.8933702559998,457.38987520499995,457.38987520499995,457.38987520499995,,,,,0,1,f,1,458.2909602519994,,,0.8832773260000977,,,,,,,,,,,,,,,,,,,,,,,,,,,,,,,,,,,,,29784,2022-09-16_10h26.56.074,vts_reward_expectancy,2022.2.4,59.9292494456976,
,,,,,,,,,,,,,,,,,,1,0,1,0,1,0,1,0,,,,,,,,,,,,,,,,,,,,,,,,,,,,,,,,,,,,,,,,,,,,,,,,464.49794722799925,167,B,circle,0.0014085080001677852,460.78205804199933,462.2789504759994,462.2789504759994,462.2789504759994,,,,,0,1,d,1,462.9961891999992,,,0.6901554970008874,,,,,,,,,,,,,,,,,,,,,,,,,,,,,,,,,,,,,29784,2022-09-16_10h26.56.074,vts_reward_expectancy,2022.2.4,59.9292494456976,
,,,,,,,,,,,,,,,,,,1,0,1,0,2,0,2,0,,,,,,,,,,,,,,,,,,,,,,,,,,,,,,,,,,,,,,,,,,,,,,,,470.22078184099973,174,F,star,0.001667481000367843,465.48582152999916,466.9840971529993,466.9840971529993,466.9840971529993,,,,,0,1,d,1,468.71924177799974,,,1.7040163930005292,,,,,,,,,,,,,,,,,,,,,,,,,,,,,,,,,,,,,29784,2022-09-16_10h26.56.074,vts_reward_expectancy,2022.2.4,59.9292494456976,
,,,,,,,,,,,,,,,,,,1,0,1,0,3,0,3,0,,,,,,,,,,,,,,,,,,,,,,,,,,,,,,,,,,,,,,,,,,,,,,,,474.67539468499945,139,Y,triangle,0.0015968520001479192,471.2085059589999,472.7067414769999,472.7067414769999,472.7067414769999,,,,,0,1,f,1,473.17394972999955,,,0.4381367940004566,,,,,,,,,,,,,,,,,,,,,,,,,,,,,,,,,,,,,29784,2022-09-16_10h26.56.074,vts_reward_expectancy,2022.2.4,59.9292494456976,
,,,,,,,,,,,,,,,,,,1,0,1,0,4,0,4,0,,,,,,,,,,,,,,,,,,,,,,,,,,,,,,,,,,,,,,,,,,,,,,,,481.66690213899983,146,H,hexagon,0.001506441999481467,475.6625170259995,477.1618021309996,477.1618021309996,477.1618021309996,480.16501893499935,480.16501893499935,480.16501893499935,480.16501893499935,0,1,None,1,480.16501893499935,481.66690213899983,482.1673064099996,,,,,,,,,,,,,,,,,,,,,,,,,,,,,,,,,,,,,,29784,2022-09-16_10h26.56.074,vts_reward_expectancy,2022.2.4,59.9292494456976,
,,,,,,,,,,,,,,,,,,1,0,1,0,5,0,5,0,,,,,,,,,,,,,,,,,,,,,,,,,,,,,,,,,,,,,,,,,,,,,,,,486.35526422099974,181,S,triangle,0.009032551999553107,482.66361520400005,484.1697727129995,484.1697727129995,484.1697727129995,,,,,0,1,d,1,484.8537505009999,,,0.6628318730008687,,,,,,,,,,,,,,,,,,,,,,,,,,,,,,,,,,,,,29784,2022-09-16_10h26.56.074,vts_reward_expectancy,2022.2.4,59.9292494456976,
,,,,,,,,,,,,,,,,,,1,0,1,0,6,0,6,0,,,,,,,,,,,,,,,,,,,,,,,,,,,,,,,,,,,,,,,,,,,,,,,,491.1605377419992,125,D,star,0.0016580029996475787,487.3438096539994,488.8414004739998,488.8414004739998,488.8414004739998,,,,,1,1,d,1,489.6594186599996,,,0.7998834220006756,,,,,,,,,,,,,,,,,,,,,,,,,,,,,,,,,,,,,29784,2022-09-16_10h26.56.074,vts_reward_expectancy,2022.2.4,59.9292494456976,
,,,,,,,,,,,,,,,,,,1,0,1,0,7,0,7,0,,,,,,,,,,,,,,,,,,,,,,,,,,,,,,,,,,,,,,,,,,,,,,,,495.6322948909992,160,U,circle,0.0014015760007168865,492.14774930099975,493.64672907399927,493.64672907399927,493.64672907399927,,,,,1,0,f,1,494.1305835459998,,,0.46642249100113986,,,,,,,,,,,,,,,,,,,,,,,,,,,,,,,,,,,,,29784,2022-09-16_10h26.56.074,vts_reward_expectancy,2022.2.4,59.9292494456976,
,,,,,,,,,,,,,,,,,,1,0,1,0,8,0,8,0,,,,,,,,,,,,,,,,,,,,,,,,,,,,,,,,,,,,,,,,,,,,,,,,500.6210586389998,132,W,star,0.00192812099976436,496.6204255859993,498.11835017199974,498.11835017199974,498.11835017199974,,,,,1,0,d,1,499.1195555149998,,,0.9788071060002039,,,,,,,,,,,,,,,,,,,,,,,,,,,,,,,,,,,,,29784,2022-09-16_10h26.56.074,vts_reward_expectancy,2022.2.4,59.9292494456976,
,,,,,,,,,,,,,,,,,,1,0,1,0,9,0,9,0,,,,,,,,,,,,,,,,,,,,,,,,,,,,,,,,,,,,,,,,,,,,,,,,505.1927749459992,167,B,hexagon,0.0015961569997671177,501.60919884599934,503.10702168199987,503.10702168199987,503.10702168199987,,,,,1,0,f,1,503.6910475349996,,,0.5573843010006385,,,,,,,,,,,,,,,,,,,,,,,,,,,,,,,,,,,,,29784,2022-09-16_10h26.56.074,vts_reward_expectancy,2022.2.4,59.9292494456976,
,,,,,,,,,,,,,,,,,,2,0,2,0,0,0,0,0,,,,,,,,,,,,,,,,,,,,,,,,,,,,,,,,,,,,,,,,,,,,,,,,514.2193875859994,139,F,star,0.0020390090003274963,509.93329246399935,511.432988818,511.432988818,511.432988818,,,,,1,0,d,2,512.7177625279992,,,1.25654829800078,,,,,,,,,,,,,,,,,,,,,,,,,,,,,,,,,,,,,29784,2022-09-16_10h26.56.074,vts_reward_expectancy,2022.2.4,59.9292494456976,
,,,,,,,,,,,,,,,,,,2,0,2,0,1,0,1,0,,,,,,,,,,,,,,,,,,,,,,,,,,,,,,,,,,,,,,,,,,,,,,,,519.2582428939995,146,Y,hexagon,0.0013999900002090726,515.2063147989993,516.7054828999999,516.7054828999999,516.7054828999999,,,,,1,0,d,2,517.756546009,,,1.0317746810005701,,,,,,,,,,,,,,,,,,,,,,,,,,,,,,,,,,,,,29784,2022-09-16_10h26.56.074,vts_reward_expectancy,2022.2.4,59.9292494456976,
,,,,,,,,,,,,,,,,,,2,0,2,0,2,0,2,0,,,,,,,,,,,,,,,,,,,,,,,,,,,,,,,,,,,,,,,,,,,,,,,,523.8800003689994,132,S,triangle,0.0015399550002257456,520.2453242829997,521.7443120999997,521.7443120999997,521.7443120999997,,,,,1,0,d,2,522.3784581299997,,,0.6089027880007052,,,,,,,,,,,,,,,,,,,,,,,,,,,,,,,,,,,,,29784,2022-09-16_10h26.56.074,vts_reward_expectancy,2022.2.4,59.9292494456976,
,,,,,,,,,,,,,,,,,,2,0,2,0,3,0,3,0,,,,,,,,,,,,,,,,,,,,,,,,,,,,,,,,,,,,,,,,,,,,,,,,528.4017283039993,167,D,circle,0.0014191179998306325,524.867332631,526.3654993089995,526.3654993089995,526.3654993089995,,,,,1,0,f,2,526.9000139789996,,,0.5159003020007731,,,,,,,,,,,,,,,,,,,,,,,,,,,,,,,,,,,,,29784,2022-09-16_10h26.56.074,vts_reward_expectancy,2022.2.4,59.9292494456976,
,,,,,,,,,,,,,,,,,,2,0,2,0,4,0,4,0,,,,,,,,,,,,,,,,,,,,,,,,,,,,,,,,,,,,,,,,,,,,,,,,533.1735403769999,125,H,circle,0.001628770000024815,529.389411915,530.8876474609997,530.8876474609997,530.8876474609997,,,,,1,0,d,2,531.6717898339994,,,0.7524870040006135,,,,,,,,,,,,,,,,,,,,,,,,,,,,,,,,,,,,,29784,2022-09-16_10h26.56.074,vts_reward_expectancy,2022.2.4,59.9292494456976,
,,,,,,,,,,,,,,,,,,2,0,2,0,5,0,5,0,,,,,,,,,,,,,,,,,,,,,,,,,,,,,,,,,,,,,,,,,,,,,,,,537.6619116749998,181,B,triangle,0.0015385030001198174,534.1605676459994,535.6596764779997,535.6596764779997,535.6596764779997,,,,,1,0,f,2,536.1604612379997,,,0.4688811420010097,,,,,,,,,,,,,,,,,,,,,,,,,,,,,,,,,,,,,29784,2022-09-16_10h26.56.074,vts_reward_expectancy,2022.2.4,59.9292494456976,
,,,,,,,,,,,,,,,,,,2,0,2,0,6,0,6,0,,,,,,,,,,,,,,,,,,,,,,,,,,,,,,,,,,,,,,,,,,,,,,,,542.200331858,160,W,star,0.0016425769999841577,538.6483004659995,540.1479745059996,540.1479745059996,540.1479745059996,,,,,1,0,f,2,540.6985807519995,,,0.5242568430003303,,,,,,,,,,,,,,,,,,,,,,,,,,,,,,,,,,,,,29784,2022-09-16_10h26.56.074,vts_reward_expectancy,2022.2.4,59.9292494456976,
,,,,,,,,,,,,,,,,,,2,0,2,0,7,0,7,0,,,,,,,,,,,,,,,,,,,,,,,,,,,,,,,,,,,,,,,,,,,,,,,,546.6551489949998,174,U,hexagon,0.0016959109998424537,543.1876969839996,544.6862831359995,544.6862831359995,544.6862831359995,,,,,1,0,f,2,545.1535436519998,,,0.4343989800008785,,,,,,,,,,,,,,,,,,,,,,,,,,,,,,,,,,,,,29784,2022-09-16_10h26.56.074,vts_reward_expectancy,2022.2.4,59.9292494456976,
,,,,,,,,,,,,,,,,,,2,0,2,0,8,0,8,0,,,,,,,,,,,,,,,,,,,,,,,,,,,,,,,,,,,,,,,,,,,,,,,,551.6773862779992,139,F,star,0.0017006419993776944,547.6427515119994,549.1412393929995,549.1412393929995,549.1412393929995,,,,,1,0,d,2,550.1757561369996,,,1.012196495000353,,,,,,,,,,,,,,,,,,,,,,,,,,,,,,,,,,,,,29784,2022-09-16_10h26.56.074,vts_reward_expectancy,2022.2.4,59.9292494456976,
,,,,,,,,,,,,,,,,,,2,0,2,0,9,0,9,0,,,,,,,,,,,,,,,,,,,,,,,,,,,,,,,,,,,,,,,,,,,,,,,,556.2489467429996,146,Y,hexagon,0.001572856999700889,552.6636157129997,554.1633713349993,554.1633713349993,554.1633713349993,,,,,1,0,d,2,554.7474112939999,,,0.5574652750001405,,,,,,,,,,,,,,,,,,,,,,,,,,,,,,,,,,,,,29784,2022-09-16_10h26.56.074,vts_reward_expectancy,2022.2.4,59.9292494456976,
,,,,,,,,,,,,,,,,,,,,,,,,,,0,0,0,0,0,0,0,0,,,,,,,,,,,,,,,,,,,,,,,,,,,,,,,,,,,,,,,,598.6957566019992,132,Y,circle,0.0016466220004076604,,,,,,,,,1,0,,3,597.1940771319996,,,,594.4955640359995,595.9927956879992,595.9927956879992,595.9927956879992,k,1.1764361599998665,,,,,,,,,,,,,,,,,,,,,,,,,,,,,,,29784,2022-09-16_10h26.56.074,vts_reward_expectancy,2022.2.4,59.9292494456976,
,,,,,,,,,,,,,,,,,,,,,,,,,,0,0,0,0,1,0,1,0,,,,,,,,,,,,,,,,,,,,,,,,,,,,,,,,,,,,,,,,603.634638562,181,U,star,0.0015841200001887046,,,,,,,,,1,0,,3,602.1328977679996,,,,599.6840525769994,601.1818592049995,601.1818592049995,601.1818592049995,k,0.9312334280011783,,,,,,,,,,,,,,,,,,,,,,,,,,,,,,,29784,2022-09-16_10h26.56.074,vts_reward_expectancy,2022.2.4,59.9292494456976,
,,,,,,,,,,,,,,,,,,,,,,,,,,0,0,0,0,2,0,2,0,,,,,,,,,,,,,,,,,,,,,,,,,,,,,,,,,,,,,,,,608.0560580349993,146,B,triangle,0.0014542090002578334,,,,,,,,,1,0,,3,606.5544222259996,,,,604.622996176,606.120675436,606.120675436,606.120675436,j,0.4169672910011286,,,,,,,,,,,,,,,,,,,,,,,,,,,,,,,29784,2022-09-16_10h26.56.074,vts_reward_expectancy,2022.2.4,59.9292494456976,
,,,,,,,,,,,,,,,,,,,,,,,,,,0,0,0,0,3,0,3,0,,,,,,,,,,,,,,,,,,,,,,,,,,,,,,,,,,,,,,,,612.7112725329998,160,S,hexagon,0.0014959070003897068,,,,,,,,,1,0,,3,611.2127608089995,,,,609.043003234,610.5420824509993,610.5420824509993,610.5420824509993,k,0.6508456220008156,,,,,,,,,,,,,,,,,,,,,,,,,,,,,,,29784,2022-09-16_10h26.56.074,vts_reward_expectancy,2022.2.4,59.9292494456976,
,,,,,,,,,,,,,,,,,,,,,,,,,,0,0,0,0,4,0,4,0,,,,,,,,,,,,,,,,,,,,,,,,,,,,,,,,,,,,,,,,617.1996613519996,139,F,star,0.0014203680002538022,,,,,,,,,1,0,,3,615.6978897169993,,,,613.6995911509994,615.1973876639995,615.1973876639995,615.1973876639995,j,0.48391939000066486,,,,,,,,,,,,,,,,,,,,,,,,,,,,,,,29784,2022-09-16_10h26.56.074,vts_reward_expectancy,2022.2.4,59.9292494456976,
,,,,,,,,,,,,,,,,,,,,,,,,,,0,0,0,0,5,0,5,0,,,,,,,,,,,,,,,,,,,,,,,,,,,,,,,,,,,,,,,,621.6378187619994,174,D,circle,0.0013092070003040135,,,,,,,,,1,0,,3,620.1361442919997,,,,618.1867384329998,619.685856825,619.685856825,619.685856825,j,0.4182727639999939,,,,,,,,,,,,,,,,,,,,,,,,,,,,,,,29784,2022-09-16_10h26.56.074,vts_reward_expectancy,2022.2.4,59.9292494456976,
,,,,,,,,,,,,,,,,,,,,,,,,,,0,0,0,0,6,0,6,0,,,,,,,,,,,,,,,,,,,,,,,,,,,,,,,,,,,,,,,,626.4767096589994,167,W,triangle,0.00177009100025316,,,,,,,,,1,0,,3,624.9749177659996,,,,622.6255673079995,624.124014649,624.124014649,624.124014649,k,0.821239649000745,,,,,,,,,,,,,,,,,,,,,,,,,,,,,,,29784,2022-09-16_10h26.56.074,vts_reward_expectancy,2022.2.4,59.9292494456976,
,,,,,,,,,,,,,,,,,,,,,,,,,,0,0,0,0,7,0,7,0,,,,,,,,,,,,,,,,,,,,,,,,,,,,,,,,,,,,,,,,631.248299627,125,H,hexagon,0.0016056169997682446,,,,,,,,,1,0,,3,629.746635597,,,,627.4637254959998,628.9626574119993,628.9626574119993,628.9626574119993,j,0.7588744260001477,,,,,,,,,,,,,,,,,,,,,,,,,,,,,,,29784,2022-09-16_10h26.56.074,vts_reward_expectancy,2022.2.4,59.9292494456976,
,,,,,,,,,,,,,,,,,,,,,,,,,,0,0,0,0,8,0,8,0,,,,,,,,,,,,,,,,,,,,,,,,,,,,,,,,,,,,,,,,635.920277966,132,Y,hexagon,0.0015457039999091648,,,,,,,,,1,0,,3,634.418580607,,,,632.2392453169996,633.7345729139997,633.7345729139997,633.7345729139997,k,0.6578444090009725,,,,,,,,,,,,,,,,,,,,,,,,,,,,,,,29784,2022-09-16_10h26.56.074,vts_reward_expectancy,2022.2.4,59.9292494456976,
,,,,,,,,,,,,,,,,,,,,,,,,,,0,0,0,0,9,0,9,0,,,,,,,,,,,,,,,,,,,,,,,,,,,,,,,,,,,,,,,,640.4086291479998,181,U,triangle,0.0016140699999596109,,,,,,,,,1,0,,3,638.906870631,,,,636.9084180709997,638.4064582989995,638.4064582989995,638.4064582989995,k,0.4826646890005577,,,,,,,,,,,,,,,,,,,,,,,,,,,,,,,29784,2022-09-16_10h26.56.074,vts_reward_expectancy,2022.2.4,59.9292494456976,
,,,,,,,,,,,,,,,,,,,,,,,,,,,,,,,,,,0,0,0,0,0,0,0,0,,,,,,,,,,,,,,,,,,,,,,,,,,,,0,,,,686.0755534889995,181,F,circle,0.0021893140001338907,,,,,,,,,0,0,,4,,,,,,,,,,,681.444154406,681.444154406,681.444154406,681.444154406,682.9386344219993,682.9386344219993,682.9386344219993,682.9386344219993,682.9553258309998,682.9553258309998,682.9553258309998,682.9553258309998,-1,number,NA,d,1.6066366550003295,vtsPrac,0,684.5744432689999,,,,,,,,,,,29784,2022-09-16_10h26.56.074,vts_reward_expectancy,2022.2.4,59.9292494456976,
,,,,,,,,,,,,,,,,,,,,,,,,,,,,,,,,,,0,0,0,0,1,0,1,0,,,,,,,,,,,,,,,,,,,,,,,,,,,,0,,,,690.6138914389994,132,W,hexagon,0.001539626000521821,,,,,,,,,0,1,,4,,,,,,,,,,,687.066123054,687.066123054,687.066123054,687.066123054,688.5614747669997,688.5614747669997,688.5614747669997,688.5614747669997,688.5781627289998,688.5781627289998,688.5781627289998,688.5781627289998,repeat,number,NA,f,0.5186140790001446,vtsPrac,0,689.112125353,,,,,,,,,,,29784,2022-09-16_10h26.56.074,vts_reward_expectancy,2022.2.4,59.9292494456976,
,,,,,,,,,,,,,,,,,,,,,,,,,,,,,,,,,,0,0,0,0,2,0,2,0,,,,,,,,,,,,,,,,,,,,,,,,,,,,0,,,,696.4035824189996,174,B,circle,0.00182121299985738,,,,,,,,,1,1,,4,,,,,,,,,,,691.603380003,691.603380003,691.603380003,691.603380003,693.1000864279995,693.1000864279995,693.1000864279995,693.1000864279995,693.1169256229996,693.1169256229996,693.1169256229996,693.1169256229996,switch,letter,lettSwt,j,1.7810499090010126,vtsPrac,0,694.9029653799998,,,,,,,,,,,29784,2022-09-16_10h26.56.074,vts_reward_expectancy,2022.2.4,59.9292494456976,
,,,,,,,,,,,,,,,,,,,,,,,,,,,,,,,,,,0,0,0,0,3,0,3,0,,,,,,,,,,,,,,,,,,,,,,,,,,,,0,,,,702.7608379969997,125,H,star,0.0013965489997644909,,,,,,,,,1,0,,4,,,,,,,,,,,697.3930315039997,697.3930315039997,697.3930315039997,697.3930315039997,698.8895837479995,698.8895837479995,698.8895837479995,698.8895837479995,698.9062680279994,698.9062680279994,698.9062680279994,698.9062680279994,repeat,letter,lettRpt,j,2.3518581530006486,vtsPrac,0,701.2591991159998,702.7608379969997,,,,,,,,,,29784,2022-09-16_10h26.56.074,vts_reward_expectancy,2022.2.4,59.9292494456976,
,,,,,,,,,,,,,,,,,,,,,,,,,,,,,,,,,,0,0,0,0,4,0,4,0,,,,,,,,,,,,,,,,,,,,,,,,,,,,0,,,,707.7996954009996,181,F,circle,0.0007934349996503443,,,,,,,,,1,0,,4,,,,,,,,,,,703.7476438439999,703.7476438439999,703.7476438439999,703.7476438439999,705.2465720959999,705.2465720959999,705.2465720959999,705.2465720959999,705.263470334,705.263470334,705.263470334,705.263470334,repeat,letter,lettRpt,j,1.0185266690004937,vtsPrac,0,706.2979188310001,,,,,,,,,,,29784,2022-09-16_10h26.56.074,vts_reward_expectancy,2022.2.4,59.9292494456976,
,,,,,,,,,,,,,,,,,,,,,,,,,,,,,,,,,,0,0,0,0,5,0,5,0,,,,,,,,,,,,,,,,,,,,,,,,,,,,0,,,,712.271197989,132,W,triangle,0.001604598999620066,,,,,,,,,1,0,,4,,,,,,,,,,,708.7869617679999,708.7869617679999,708.7869617679999,708.7869617679999,710.2856156439993,710.2856156439993,710.2856156439993,710.2856156439993,710.3022526629993,710.3022526629993,710.3022526629993,710.3022526629993,repeat,letter,lettRpt,k,0.45988963400031935,vtsPrac,0,710.7694959649998,,,,,,,,,,,29784,2022-09-16_10h26.56.074,vts_reward_expectancy,2022.2.4,59.9292494456976,
,,,,,,,,,,,,,,,,,,,,,,,,,,,,,,,,,,0,0,0,0,6,0,6,0,,,,,,,,,,,,,,,,,,,,,,,,,,,,0,,,,716.6593509519998,174,B,star,0.0014554089993907837,,,,,,,,,1,0,,4,,,,,,,,,,,713.2600125139998,713.2600125139998,713.2600125139998,713.2600125139998,714.7572434169997,714.7572434169997,714.7572434169997,714.7572434169997,714.7737827199999,714.7737827199999,714.7737827199999,714.7737827199999,repeat,letter,lettRpt,j,0.37184983499992086,vtsPrac,0,715.1577088829999,,,,,,,,,,,29784,2022-09-16_10h26.56.074,vts_reward_expectancy,2022.2.4,59.9292494456976,
,,,,,,,,,,,,,,,,,,,,,,,,,,,,,,,,,,0,0,0,0,7,0,7,0,,,,,,,,,,,,,,,,,,,,,,,,,,,,0,,,,721.2476750339993,125,H,triangle,0.0015843890005271533,,,,,,,,,1,0,,4,,,,,,,,,,,717.6467663959993,717.6467663959993,717.6467663959993,717.6467663959993,719.1454064249992,719.1454064249992,719.1454064249992,719.1454064249992,719.1621472179995,719.1621472179995,719.1621472179995,719.1621472179995,repeat,letter,lettRpt,j,0.5758772220005994,vtsPrac,0,719.7461281339993,,,,,,,,,,,29784,2022-09-16_10h26.56.074,vts_reward_expectancy,2022.2.4,59.9292494456976,
,,,,,,,,,,,,,,,,,,,,,,,,,,,,,,,,,,0,0,0,0,8,0,8,0,,,,,,,,,,,,,,,,,,,,,,,,,,,,0,,,,726.1697709239997,132,S,triangle,0.0018212209997727768,,,,,,,,,1,0,,4,,,,,,,,,,,722.2357437049995,722.2357437049995,722.2357437049995,722.2357437049995,723.7337919689999,723.7337919689999,723.7337919689999,723.7337919689999,723.750539441,723.750539441,723.750539441,723.750539441,repeat,letter,lettRpt,k,0.9155666060014482,vtsPrac,0,724.6682693059993,,,,,,,,,,,29784,2022-09-16_10h26.56.074,vts_reward_expectancy,2022.2.4,59.9292494456976,
,,,,,,,,,,,,,,,,,,,,,,,,,,,,,,,,,,0,0,0,0,9,0,9,0,,,,,,,,,,,,,,,,,,,,,,,,,,,,0,,,,730.6750333069995,174,U,circle,0.0012817570004699519,,,,,,,,,0,0,,4,,,,,,,,,,,727.1587567379993,727.1587567379993,727.1587567379993,727.1587567379993,728.6557895409996,728.6557895409996,728.6557895409996,728.6557895409996,728.6725700339994,728.6725700339994,728.6725700339994,728.6725700339994,repeat,letter,NA,j,0.48969425999985106,vtsPrac,0,729.1732248529997,,,,,,,,,,,29784,2022-09-16_10h26.56.074,vts_reward_expectancy,2022.2.4,59.9292494456976,
,,,,,,,,,,,,,,,,,,,,,,,,,,,,,,,,,,0,0,0,0,10,0,10,0,,,,,,,,,,,,,,,,,,,,,,,,,,,,0,,,,735.4634554729992,167,H,triangle,0.0016274379995593335,,,,,,,,,1,1,,4,,,,,,,,,,,731.6636238499996,731.6636238499996,731.6636238499996,731.6636238499996,733.1608006449997,733.1608006449997,733.1608006449997,733.1608006449997,733.1776505429998,733.1776505429998,733.1776505429998,733.1776505429998,repeat,letter,lettRpt,j,0.7846637340007874,vtsPrac,0,733.9619103099994,,,,,,,,,,,29784,2022-09-16_10h26.56.074,vts_reward_expectancy,2022.2.4,59.9292494456976,
,,,,,,,,,,,,,,,,,,,,,,,,,,,,,,,,,,0,0,0,0,11,0,11,0,,,,,,,,,,,,,,,,,,,,,,,,,,,,0,,,,740.6857696809993,125,W,circle,0.0011216899993087281,,,,,,,,,1,0,,4,,,,,,,,,,,736.4506535699993,736.4506535699993,736.4506535699993,736.4506535699993,737.9495337499993,737.9495337499993,737.9495337499993,737.9495337499993,737.966225575,737.966225575,737.966225575,737.966225575,repeat,letter,lettRpt,k,1.2111987710004541,vtsPrac,0,739.1842226299996,,,,,,,,,,,29784,2022-09-16_10h26.56.074,vts_reward_expectancy,2022.2.4,59.9292494456976,
,,,,,,,,,,,,,,,,,,,,,,,,,,,,,,,,,,0,0,0,0,12,0,12,0,,,,,,,,,,,,,,,,,,,,,,,,,,,,0,,,,745.4910967179994,146,Y,hexagon,0.0013391860002229805,,,,,,,,,1,0,,4,,,,,,,,,,,741.6750795179996,741.6750795179996,741.6750795179996,741.6750795179996,743.1718230789993,743.1718230789993,743.1718230789993,743.1718230789993,743.1885366449997,743.1885366449997,743.1885366449997,743.1885366449997,repeat,letter,lettRpt,k,0.7967467230000693,vtsPrac,0,743.9894038119992,,,,,,,,,,,29784,2022-09-16_10h26.56.074,vts_reward_expectancy,2022.2.4,59.9292494456976,
,,,,,,,,,,,,,,,,,,,,,,,,,,,,,,,,,,0,0,0,0,13,0,13,0,,,,,,,,,,,,,,,,,,,,,,,,,,,,0,,,,752.4820586759997,181,S,triangle,0.0015639050006939215,,,,,,,,,-1,0,,4,,,752.9825815639997,,,,,,,,746.4787596999995,746.4787596999995,746.4787596999995,746.4787596999995,747.9772683029996,747.9772683029996,747.9772683029996,747.9772683029996,747.9940293029995,747.9940293029995,747.9940293029995,747.9940293029995,switch,no_choice,NA,None,,vtsPrac,0,750.9807777439992,752.4820586759997,750.9807777439992,750.9807777439992,750.9807777439992,750.9807777439992,,,,,,29784,2022-09-16_10h26.56.074,vts_reward_expectancy,2022.2.4,59.9292494456976,
,,,,,,,,,,,,,,,,,,,,,,,,,,,,,,,,,,0,0,0,0,14,0,14,0,,,,,,,,,,,,,,,,,,,,,,,,,,,,0,,,,757.070534296,125,H,triangle,0.008809238000139885,,,,,,,,,1,0,,4,,,,,,,,,,,753.4786760899997,753.4786760899997,753.4786760899997,753.4786760899997,754.9848251949998,754.9848251949998,754.9848251949998,754.9848251949998,754.9848251949998,754.9848251949998,754.9848251949998,754.9848251949998,switch,letter,lettSwt,j,0.5594509760012443,vtsPrac,0,755.5687779579994,,,,,,,,,,,29784,2022-09-16_10h26.56.074,vts_reward_expectancy,2022.2.4,59.9292494456976,
,,,,,,,,,,,,,,,,,,,,,,,,,,,,,,,,,,0,0,0,0,15,0,15,0,,,,,,,,,,,,,,,,,,,,,,,,,,,,0,,,,761.6089908569993,132,W,circle,0.0014942530006010202,,,,,,,,,1,0,,4,,,,,,,,,,,758.0588966079995,758.0588966079995,758.0588966079995,758.0588966079995,759.5567242629995,759.5567242629995,759.5567242629995,759.5567242629995,759.573324688,759.573324688,759.573324688,759.573324688,repeat,letter,lettRpt,k,0.5329301290003059,vtsPrac,0,760.1072179249995,,,,,,,,,,,29784,2022-09-16_10h26.56.074,vts_reward_expectancy,2022.2.4,59.9292494456976,
,,,,,,,,,,,,,,,,,,,,,,,,,,,,,,,,,,1,0,1,0,0,0,0,0,,,,,,,,,,,,,,,,,,,,,,,,,,,,0,,,,781.630819768,132,D,triangle,0.0018642100003489759,,,,,,,,,1,0,,5,,,,,,,,,,,777.7315608299996,777.7315608299996,777.7315608299996,777.7315608299996,779.2283415039992,779.2283415039992,779.2283415039992,779.2283415039992,779.2449336909995,779.2449336909995,779.2449336909995,779.2449336909995,repeat,letter,lettRpt,j,0.8846313040012319,vtsPrac,0,780.129245313,781.630819768,,,,,,,,,,29784,2022-09-16_10h26.56.074,vts_reward_expectancy,2022.2.4,59.9292494456976,
,,,,,,,,,,,,,,,,,,,,,,,,,,,,,,,,,,1,0,1,0,1,0,1,0,,,,,,,,,,,,,,,,,,,,,,,,,,,,0,,,,786.2027623089998,160,S,circle,0.0009014810002554441,,,,,,,,,1,0,,5,,,,,,,,,,,782.6197725639995,782.6197725639995,782.6197725639995,782.6197725639995,784.1163798359994,784.1163798359994,784.1163798359994,784.1163798359994,784.1331608209994,784.1331608209994,784.1331608209994,784.1331608209994,repeat,letter,lettRpt,k,0.5642083480006477,vtsPrac,0,784.70098487,,,,,,,,,,,29784,2022-09-16_10h26.56.074,vts_reward_expectancy,2022.2.4,59.9292494456976,
,,,,,,,,,,,,,,,,,,,,,,,,,,,,,,,,,,1,0,1,0,2,0,2,0,,,,,,,,,,,,,,,,,,,,,,,,,,,,0,,,,791.7422101709999,167,W,star,0.001479999999901338,,,,,,,,,1,0,,5,,,,,,,,,,,787.1908203949997,787.1908203949997,787.1908203949997,787.1908203949997,788.6887300619992,788.6887300619992,788.6887300619992,788.6887300619992,788.7056170059996,788.7056170059996,788.7056170059996,788.7056170059996,repeat,letter,lettRpt,k,1.5276944260003802,vtsPrac,0,790.2404621899996,,,,,,,,,,,29784,2022-09-16_10h26.56.074,vts_reward_expectancy,2022.2.4,59.9292494456976,
,,,,,,,,,,,,,,,,,,,,,,,,,,,,,,,,,,1,0,1,0,3,0,3,0,,,,,,,,,,,,,,,,,,,,,,,,,,,,0,,,,796.6474701749994,146,H,hexagon,0.0015343169998232042,,,,,,,,,1,0,,5,,,,,,,,,,,792.7300170299995,792.7300170299995,792.7300170299995,792.7300170299995,794.2282496889993,794.2282496889993,794.2282496889993,794.2282496889993,794.2449767219996,794.2449767219996,794.2449767219996,794.2449767219996,repeat,letter,lettRpt,j,0.9008244420001574,vtsPrac,0,795.1458205339995,,,,,,,,,,,29784,2022-09-16_10h26.56.074,vts_reward_expectancy,2022.2.4,59.9292494456976,
,,,,,,,,,,,,,,,,,,,,,,,,,,,,,,,,,,1,0,1,0,4,0,4,0,,,,,,,,,,,,,,,,,,,,,,,,,,,,0,,,,801.4026812669999,132,D,circle,0.0013467510007103556,,,,,,,,,1,0,,5,,,,,,,,,,,797.6351826229993,797.6351826229993,797.6351826229993,797.6351826229993,799.1335207379998,799.1335207379998,799.1335207379998,799.1335207379998,799.1502267349997,799.1502267349997,799.1502267349997,799.1502267349997,repeat,letter,lettRpt,j,0.7397535730005984,vtsPrac,0,799.9010764169998,,,,,,,,,,,29784,2022-09-16_10h26.56.074,vts_reward_expectancy,2022.2.4,59.9292494456976,
,,,,,,,,,,,,,,,,,,,,,,,,,,,,,,,,,,1,0,1,0,5,0,5,0,,,,,,,,,,,,,,,,,,,,,,,,,,,,0,,,,806.1914769639998,160,S,triangle,0.0014914930006852956,,,,,,,,,1,0,,5,,,,,,,,,,,802.3908713609999,802.3908713609999,802.3908713609999,802.3908713609999,803.8888657849993,803.8888657849993,803.8888657849993,803.8888657849993,803.9056069259996,803.9056069259996,803.9056069259996,803.9056069259996,repeat,letter,lettRpt,k,0.7681585560003441,vtsPrac,0,804.6900500279999,,,,,,,,,,,29784,2022-09-16_10h26.56.074,vts_reward_expectancy,2022.2.4,59.9292494456976,
,,,,,,,,,,,,,,,,,,,,,,,,,,,,,,,,,,1,0,1,0,6,0,6,0,,,,,,,,,,,,,,,,,,,,,,,,,,,,0,,,,811.2636716919997,167,W,star,0.0015621730008206214,,,,,,,,,1,0,,5,,,,,,,,,,,807.1800602889998,807.1800602889998,807.1800602889998,807.1800602889998,808.6774424299992,808.6774424299992,808.6774424299992,808.6774424299992,808.6942333359993,808.6942333359993,808.6942333359993,808.6942333359993,repeat,letter,lettRpt,k,1.0678305990004446,vtsPrac,0,809.7620600369992,,,,,,,,,,,29784,2022-09-16_10h26.56.074,vts_reward_expectancy,2022.2.4,59.9292494456976,
,,,,,,,,,,,,,,,,,,,,,,,,,,,,,,,,,,1,0,1,0,7,0,7,0,,,,,,,,,,,,,,,,,,,,,,,,,,,,0,,,,816.0188797499995,146,H,triangle,0.0013995650006108917,,,,,,,,,1,0,,5,,,,,,,,,,,812.252085012,812.252085012,812.252085012,812.252085012,813.7497289899993,813.7497289899993,813.7497289899993,813.7497289899993,813.7663369639995,813.7663369639995,813.7663369639995,813.7663369639995,repeat,letter,lettRpt,j,0.7397158540006785,vtsPrac,0,814.5171287339999,,,,,,,,,,,29784,2022-09-16_10h26.56.074,vts_reward_expectancy,2022.2.4,59.9292494456976,
,,,,,,,,,,,,,,,,,,,,,,,,,,,,,,,,,,1,0,1,0,8,0,8,0,,,,,,,,,,,,,,,,,,,,,,,,,,,,0,,,,820.8574208099999,132,B,circle,0.0015226300001813797,,,,,,,,,1,0,,5,,,,,,,,,,,817.0076690279993,817.0076690279993,817.0076690279993,817.0076690279993,818.504809864,818.504809864,818.504809864,818.504809864,818.5214769169997,818.5214769169997,818.5214769169997,818.5214769169997,repeat,letter,lettRpt,j,0.832686905000628,vtsPrac,0,819.355779691,,,,,,,,,,,29784,2022-09-16_10h26.56.074,vts_reward_expectancy,2022.2.4,59.9292494456976,
,,,,,,,,,,,,,,,,,,,,,,,,,,,,,,,,,,1,0,1,0,9,0,9,0,,,,,,,,,,,,,,,,,,,,,,,,,,,,0,,,,826.6807903549998,125,F,star,0.0013185389998398023,,,,,,,,,1,0,,5,,,,,,,,,,,821.846160649,821.846160649,821.846160649,821.846160649,823.3435569099993,823.3435569099993,823.3435569099993,823.3435569099993,823.360334299,823.360334299,823.360334299,823.360334299,repeat,letter,lettRpt,j,1.80994640300014,vtsPrac,0,825.1789913079992,,,,,,,,,,,29784,2022-09-16_10h26.56.074,vts_reward_expectancy,2022.2.4,59.9292494456976,
,,,,,,,,,,,,,,,,,,,,,,,,,,,,,,,,,,1,0,1,0,10,0,10,0,,,,,,,,,,,,,,,,,,,,,,,,,,,,0,,,,832.6038090419997,181,U,star,0.0016446069994344725,,,,,,,,,1,0,,5,,,,,,,,,,,827.668587616,827.668587616,827.668587616,827.668587616,829.1668141309992,829.1668141309992,829.1668141309992,829.1668141309992,829.1833998949996,829.1833998949996,829.1833998949996,829.1833998949996,repeat,letter,lettRpt,k,1.914628105000702,vtsPrac,0,831.1021541339996,,,,,,,,,,,29784,2022-09-16_10h26.56.074,vts_reward_expectancy,2022.2.4,59.9292494456976,
,,,,,,,,,,,,,,,,,,,,,,,,,,,,,,,,,,1,0,1,0,11,0,11,0,,,,,,,,,,,,,,,,,,,,,,,,,,,,0,,,,837.2923787379996,139,D,circle,0.0013879230000384268,,,,,,,,,1,0,,5,,,,,,,,,,,833.5908573329998,833.5908573329998,833.5908573329998,833.5908573329998,835.0900390589995,835.0900390589995,835.0900390589995,835.0900390589995,835.1068082249994,835.1068082249994,835.1068082249994,835.1068082249994,repeat,letter,lettRpt,j,0.6701169570005732,vtsPrac,0,835.7907404479993,,,,,,,,,,,29784,2022-09-16_10h26.56.074,vts_reward_expectancy,2022.2.4,59.9292494456976,
,,,,,,,,,,,,,,,,,,,,,,,,,,,,,,,,,,1,0,1,0,12,0,12,0,,,,,,,,,,,,,,,,,,,,,,,,,,,,0,,,,842.8319240999999,167,S,star,0.0014212979995136266,,,,,,,,,1,0,,5,,,,,,,,,,,838.2810832589994,838.2810832589994,838.2810832589994,838.2810832589994,839.7784309849994,839.7784309849994,839.7784309849994,839.7784309849994,839.7951034159996,839.7951034159996,839.7951034159996,839.7951034159996,repeat,letter,lettRpt,k,1.5350004720003199,vtsPrac,0,841.3301484869999,,,,,,,,,,,29784,2022-09-16_10h26.56.074,vts_reward_expectancy,2022.2.4,59.9292494456976,
,,,,,,,,,,,,,,,,,,,,,,,,,,,,,,,,,,1,0,1,0,13,0,13,0,,,,,,,,,,,,,,,,,,,,,,,,,,,,0,,,,848.3043312309992,160,W,triangle,0.0013576339997598552,,,,,,,,,1,0,,5,,,,,,,,,,,843.8208225999997,843.8208225999997,843.8208225999997,843.8208225999997,845.3177666019992,845.3177666019992,845.3177666019992,845.3177666019992,845.3344168159992,845.3344168159992,845.3344168159992,845.3344168159992,repeat,letter,lettRpt,k,1.4678583570012051,vtsPrac,0,846.80276366,,,,,,,,,,,29784,2022-09-16_10h26.56.074,vts_reward_expectancy,2022.2.4,59.9292494456976,
,,,,,,,,,,,,,,,,,,,,,,,,,,,,,,,,,,1,0,1,0,14,0,14,0,,,,,,,,,,,,,,,,,,,,,,,,,,,,0,,,,853.1599275639992,132,U,star,0.0014635920006185188,,,,,,,,,1,0,,5,,,,,,,,,,,849.2932220909997,849.2932220909997,849.2932220909997,849.2932220909997,850.7905367369995,850.7905367369995,850.7905367369995,850.7905367369995,850.807271437,850.807271437,850.807271437,850.807271437,repeat,letter,lettRpt,k,0.8509600890010915,vtsPrac,0,851.6581881759994,,,,,,,,,,,29784,2022-09-16_10h26.56.074,vts_reward_expectancy,2022.2.4,59.9292494456976,
,,,,,,,,,,,,,,,,,,,,,,,,,,,,,,,,,,1,0,1,0,15,0,15,0,,,,,,,,,,,,,,,,,,,,,,,,,,,,0,,,,857.7649693189996,174,B,hexagon,0.0013446510001813294,,,,,,,,,1,0,,5,,,,,,,,,,,854.1477577609994,854.1477577609994,854.1477577609994,854.1477577609994,855.6460432619997,855.6460432619997,855.6460432619997,855.6460432619997,855.662608179,855.662608179,855.662608179,855.662608179,repeat,letter,lettRpt,j,0.586334168000576,vtsPrac,0,856.2632502619999,,,,,,,,,,,29784,2022-09-16_10h26.56.074,vts_reward_expectancy,2022.2.4,59.9292494456976,
,,,,,,,,,,,,,,,,,,,,,,,,,,,,,,,,,,2,0,2,0,0,0,0,0,,,,,,,,,,,,,,,,,,,,,,,,,,,,0,,,,880.8904643019996,146,U,star,0.002029733000199485,,,,,,,,,1,0,,6,,,,,,,,,,,875.9228958039994,875.9228958039994,875.9228958039994,875.9228958039994,877.4200877809999,877.4200877809999,877.4200877809999,877.4200877809999,877.4367884029998,877.4367884029998,877.4367884029998,877.4367884029998,repeat,letter,lettRpt,k,1.9494092260010802,vtsPrac,0,879.388910783,,,,,,,,,,,29784,2022-09-16_10h26.56.074,vts_reward_expectancy,2022.2.4,59.9292494456976,
,,,,,,,,,,,,,,,,,,,,,,,,,,,,,,,,,,2,0,2,0,1,0,1,0,,,,,,,,,,,,,,,,,,,,,,,,,,,,0,,,,886.279762565,125,S,hexagon,0.0015098589992703637,,,,,,,,,1,0,,6,,,,,,,,,,,881.8775223719995,881.8775223719995,881.8775223719995,881.8775223719995,883.3765003069993,883.3765003069993,883.3765003069993,883.3765003069993,883.3932482129994,883.3932482129994,883.3932482129994,883.3932482129994,switch,number,numSwt,d,1.3764796410005147,vtsPrac,0,884.7780438509999,,,,,,,,,,,29784,2022-09-16_10h26.56.074,vts_reward_expectancy,2022.2.4,59.9292494456976,
,,,,,,,,,,,,,,,,,,,,,,,,,,,,,,,,,,2,0,2,0,2,0,2,0,,,,,,,,,,,,,,,,,,,,,,,,,,,,0,,,,891.1852146989995,174,D,circle,0.0015499970004384522,,,,,,,,,0,0,,6,,,,,,,,,,,887.2669192539997,887.2669192539997,887.2669192539997,887.2669192539997,888.7658759959995,888.7658759959995,888.7658759959995,888.7658759959995,888.7823485239996,888.7823485239996,888.7823485239996,888.7823485239996,switch,letter,NA,k,0.8994123300008141,vtsPrac,0,889.6836251699997,,,,,,,,,,,29784,2022-09-16_10h26.56.074,vts_reward_expectancy,2022.2.4,59.9292494456976,
,,,,,,,,,,,,,,,,,,,,,,,,,,,,,,,,,,2,0,2,0,3,0,3,0,,,,,,,,,,,,,,,,,,,,,,,,,,,,0,,,,896.1071314439996,132,B,hexagon,0.001316556000347191,,,,,,,,,1,1,,6,,,,,,,,,,,892.1734515179996,892.1734515179996,892.1734515179996,892.1734515179996,893.6713418579993,893.6713418579993,893.6713418579993,893.6713418579993,893.6879890299997,893.6879890299997,893.6879890299997,893.6879890299997,switch,number,numSwt,d,0.9137718570009383,vtsPrac,0,894.6056329919993,,,,,,,,,,,29784,2022-09-16_10h26.56.074,vts_reward_expectancy,2022.2.4,59.9292494456976,
,,,,,,,,,,,,,,,,,,,,,,,,,,,,,,,,,,2,0,2,0,4,0,4,0,,,,,,,,,,,,,,,,,,,,,,,,,,,,0,,,,900.7457101619993,146,U,circle,0.0014007139998284401,,,,,,,,,1,0,,6,,,,,,,,,,,897.0951947369995,897.0951947369995,897.0951947369995,897.0951947369995,898.5933151289992,898.5933151289992,898.5933151289992,898.5933151289992,898.6099313969999,898.6099313969999,898.6099313969999,898.6099313969999,switch,letter,lettSwt,k,0.6322858440007622,vtsPrac,0,899.2440563829996,,,,,,,,,,,29784,2022-09-16_10h26.56.074,vts_reward_expectancy,2022.2.4,59.9292494456976,
,,,,,,,,,,,,,,,,,,,,,,,,,,,,,,,,,,2,0,2,0,5,0,5,0,,,,,,,,,,,,,,,,,,,,,,,,,,,,0,,,,905.5677625419994,125,S,star,0.0019636550005088793,,,,,,,,,1,0,,6,,,,,,,,,,,901.7350765629999,901.7350765629999,901.7350765629999,901.7350765629999,903.231805079,903.231805079,903.231805079,903.231805079,903.2485457999992,903.2485457999992,903.2485457999992,903.2485457999992,switch,number,numSwt,d,0.8176076550007565,vtsPrac,0,904.0660562979992,,,,,,,,,,,29784,2022-09-16_10h26.56.074,vts_reward_expectancy,2022.2.4,59.9292494456976,
,,,,,,,,,,,,,,,,,,,,,,,,,,,,,,,,,,2,0,2,0,6,0,6,0,,,,,,,,,,,,,,,,,,,,,,,,,,,,0,,,,910.1560224499999,174,D,hexagon,0.0013882229995942907,,,,,,,,,1,0,,6,,,,,,,,,,,906.5554999759997,906.5554999759997,906.5554999759997,906.5554999759997,908.0537600019998,908.0537600019998,908.0537600019998,908.0537600019998,908.0705397329994,908.0705397329994,908.0705397329994,908.0705397329994,switch,letter,lettSwt,j,0.5713989700007005,vtsPrac,0,908.6543871109998,,,,,,,,,,,29784,2022-09-16_10h26.56.074,vts_reward_expectancy,2022.2.4,59.9292494456976,
,,,,,,,,,,,,,,,,,,,,,,,,,,,,,,,,,,2,0,2,0,7,0,7,0,,,,,,,,,,,,,,,,,,,,,,,,,,,,0,,,,914.9113424489997,132,B,triangle,0.0014361129997269018,,,,,,,,,1,0,,6,,,,,,,,,,,911.1448422049998,911.1448422049998,911.1448422049998,911.1448422049998,912.6420651239996,912.6420651239996,912.6420651239996,912.6420651239996,912.6589003589997,912.6589003589997,912.6589003589997,912.6589003589997,repeat,letter,lettRpt,j,0.7422985420007535,vtsPrac,0,913.4094840969992,,,,,,,,,,,29784,2022-09-16_10h26.56.074,vts_reward_expectancy,2022.2.4,59.9292494456976,
,,,,,,,,,,,,,,,,,,,,,,,,,,,,,,,,,,2,0,2,0,8,0,8,0,,,,,,,,,,,,,,,,,,,,,,,,,,,,0,,,,920.1671086229999,125,H,circle,0.0017956199999389355,,,,,,,,,1,0,,6,,,,,,,,,,,915.9000206519995,915.9000206519995,915.9000206519995,915.9000206519995,917.3975142669997,917.3975142669997,917.3975142669997,917.3975142669997,917.4142765879997,917.4142765879997,917.4142765879997,917.4142765879997,switch,number,numSwt,d,1.2434161960009078,vtsPrac,0,918.6655219099994,,,,,,,,,,,29784,2022-09-16_10h26.56.074,vts_reward_expectancy,2022.2.4,59.9292494456976,
,,,,,,,,,,,,,,,,,,,,,,,,,,,,,,,,,,2,0,2,0,9,0,9,0,,,,,,,,,,,,,,,,,,,,,,,,,,,,0,,,,925.2894424039996,160,F,star,0.0015742400000817725,,,,,,,,,1,0,,6,,,,,,,,,,,921.1552251939993,921.1552251939993,921.1552251939993,921.1552251939993,922.6532730649997,922.6532730649997,922.6532730649997,922.6532730649997,922.6699252089993,922.6699252089993,922.6699252089993,922.6699252089993,repeat,number,numRpt,f,1.1167289650011298,vtsPrac,0,923.7878393519995,,,,,,,,,,,29784,2022-09-16_10h26.56.074,vts_reward_expectancy,2022.2.4,59.9292494456976,
,,,,,,,,,,,,,,,,,,,,,,,,,,,,,,,,,,2,0,2,0,10,0,10,0,,,,,,,,,,,,,,,,,,,,,,,,,,,,0,,,,930.0781337299995,174,B,triangle,0.001261438000256021,,,,,,,,,1,0,,6,,,,,,,,,,,926.2770915109995,926.2770915109995,926.2770915109995,926.2770915109995,927.7756385509992,927.7756385509992,927.7756385509992,927.7756385509992,927.792311274,927.792311274,927.792311274,927.792311274,switch,letter,lettSwt,j,0.776726958000836,vtsPrac,0,928.5763564699992,,,,,,,,,,,29784,2022-09-16_10h26.56.074,vts_reward_expectancy,2022.2.4,59.9292494456976,
,,,,,,,,,,,,,,,,,,,,,,,,,,,,,,,,,,2,0,2,0,11,0,11,0,,,,,,,,,,,,,,,,,,,,,,,,,,,,0,,,,935.2671735609993,181,D,star,0.0014888619998600916,,,,,,,,,0,0,,6,,,,,,,,,,,931.0662224709995,931.0662224709995,931.0662224709995,931.0662224709995,932.5641290929998,932.5641290929998,932.5641290929998,932.5641290929998,932.5810698779997,932.5810698779997,932.5810698779997,932.5810698779997,switch,number,NA,d,1.1730241450004542,vtsPrac,0,933.7655774919995,,,,,,,,,,,29784,2022-09-16_10h26.56.074,vts_reward_expectancy,2022.2.4,59.9292494456976,
,,,,,,,,,,,,,,,,,,,,,,,,,,,,,,,,,,2,0,2,0,12,0,12,0,,,,,,,,,,,,,,,,,,,,,,,,,,,,0,,,,940.1892648189996,139,S,star,0.0017154249999293825,,,,,,,,,1,1,,6,,,,,,,,,,,936.2547963759998,936.2547963759998,936.2547963759998,936.2547963759998,937.7532528829997,937.7532528829997,937.7532528829997,937.7532528829997,937.7699278959999,937.7699278959999,937.7699278959999,937.7699278959999,switch,letter,lettSwt,k,0.9037598810009513,vtsPrac,0,938.6876138429998,,,,,,,,,,,29784,2022-09-16_10h26.56.074,vts_reward_expectancy,2022.2.4,59.9292494456976,
,,,,,,,,,,,,,,,,,,,,,,,,,,,,,,,,,,2,0,2,0,13,0,13,0,,,,,,,,,,,,,,,,,,,,,,,,,,,,0,,,,945.2615369749992,160,H,triangle,0.0016678299998602597,,,,,,,,,1,0,,6,,,,,,,,,,,941.1759896219992,941.1759896219992,941.1759896219992,941.1759896219992,942.675347681,942.675347681,942.675347681,942.675347681,942.675347681,942.675347681,942.675347681,942.675347681,switch,number,numSwt,f,1.0535131170008754,vtsPrac,0,943.7599377639999,,,,,,,,,,,29784,2022-09-16_10h26.56.074,vts_reward_expectancy,2022.2.4,59.9292494456976,
,,,,,,,,,,,,,,,,,,,,,,,,,,,,,,,,,,2,0,2,0,14,0,14,0,,,,,,,,,,,,,,,,,,,,,,,,,,,,0,,,,950.5173324629995,167,B,circle,0.0014568070000677835,,,,,,,,,1,0,,6,,,,,,,,,,,946.250016553,946.250016553,946.250016553,946.250016553,947.7476094779995,947.7476094779995,947.7476094779995,947.7476094779995,947.7642281549997,947.7642281549997,947.7642281549997,947.7642281549997,switch,letter,lettSwt,j,1.2446655080002529,vtsPrac,0,949.0156519309994,,,,,,,,,,,29784,2022-09-16_10h26.56.074,vts_reward_expectancy,2022.2.4,59.9292494456976,
,,,,,,,,,,,,,,,,,,,,,,,,,,,,,,,,,,2,0,2,0,15,0,15,0,,,,,,,,,,,,,,,,,,,,,,,,,,,,0,,,,955.3726362439993,125,W,triangle,0.0016407579996666755,,,,,,,,,1,0,,6,,,,,,,,,,,951.5051301029998,951.5051301029998,951.5051301029998,951.5051301029998,953.0033877609994,953.0033877609994,953.0033877609994,953.0033877609994,953.020089916,953.020089916,953.020089916,953.020089916,switch,number,numSwt,d,0.8452030540011037,vtsPrac,0,953.871173818,,,,,,,,,,,29784,2022-09-16_10h26.56.074,vts_reward_expectancy,2022.2.4,59.9292494456976,
,,,,,,,,,,,,,,,,,,,,,,,,,,,,,,,,,,,,,,,,,,0,0,0,0,,,,,,,,,,,,,,,,,,,,,,,,0,,,,969.1711644609995,160,F,star,0.0024409830002696253,,,,,,,,,1,0,,,,,,,,,,,,,965.3878718579999,965.3878718579999,965.3878718579999,965.3878718579999,966.885413213,966.885413213,966.885413213,966.885413213,966.9020774439996,966.9020774439996,966.9020774439996,966.9020774439996,repeat,number,numRpt,f,0.7559463000006872,noRew,0,,,,,,,0,967.6700284069993,,,,29784,2022-09-16_10h26.56.074,vts_reward_expectancy,2022.2.4,59.9292494456976,
,,,,,,,,,,,,,,,,,,,,,,,,,,,,,,,,,,,,,,,,,,1,0,1,0,,,,,,,,,,,,,,,,,,,,,,,,0,,,,974.3267467589994,146,H,hexagon,0.0014390420001291204,,,,,,,,,1,0,,,,,,,,,,,,,970.1595229039995,970.1595229039995,970.1595229039995,970.1595229039995,971.6571379979996,971.6571379979996,971.6571379979996,971.6571379979996,971.6740040559998,971.6740040559998,971.6740040559998,971.6740040559998,switch,letter,lettSwt,j,1.1359440550004365,noRew,0,,,,,,,0,972.8252674449996,,,,29784,2022-09-16_10h26.56.074,vts_reward_expectancy,2022.2.4,59.9292494456976,
,,,,,,,,,,,,,,,,,,,,,,,,,,,,,,,,,,,,,,,,,,2,0,2,0,,,,,,,,,,,,,,,,,,,,,,,,0,,,,979.1153699879997,181,W,circle,0.0014969039993957267,,,,,,,,,1,0,,,,,,,,,,,,,975.3156669339996,975.3156669339996,975.3156669339996,975.3156669339996,976.8130279239995,976.8130279239995,976.8130279239995,976.8130279239995,976.829749988,976.829749988,976.829749988,976.829749988,switch,number,numSwt,f,0.7719600119999086,noRew,0,,,,,,,0,977.6138260789994,,,,29784,2022-09-16_10h26.56.074,vts_reward_expectancy,2022.2.4,59.9292494456976,
,,,,,,,,,,,,,,,,,,,,,,,,,,,,,,,,,,,,,,,,,,3,0,3,0,,,,,,,,,,,,,,,,,,,,,,,,0,,,,983.4870309839998,167,B,hexagon,0.0015720579995104345,,,,,,,,,1,0,,,,,,,,,,,,,980.1042149619998,980.1042149619998,980.1042149619998,980.1042149619998,981.6017284129994,981.6017284129994,981.6017284129994,981.6017284129994,981.6182836279995,981.6182836279995,981.6182836279995,981.6182836279995,switch,letter,lettSwt,j,0.3673158040010094,noRew,0,,,,,,,0,981.9853799979992,,,,29784,2022-09-16_10h26.56.074,vts_reward_expectancy,2022.2.4,59.9292494456976,
,,,,,,,,,,,,,,,,,,,,,,,,,,,,,,,,,,,,,,,,,,4,0,4,0,,,,,,,,,,,,,,,,,,,,,,,,0,,,,988.2422310309994,160,F,hexagon,0.0010706419998314232,,,,,,,,,1,0,,,,,,,,,,,,,984.4748792749997,984.4748792749997,984.4748792749997,984.4748792749997,985.9730964719993,985.9730964719993,985.9730964719993,985.9730964719993,985.9897521019993,985.9897521019993,985.9897521019993,985.9897521019993,switch,number,numSwt,f,0.7486642559997563,noRew,0,,,,,,,0,986.7407203139992,,,,29784,2022-09-16_10h26.56.074,vts_reward_expectancy,2022.2.4,59.9292494456976,
,,,,,,,,,,,,,,,,,,,,,,,,,,,,,,,,,,,,,,,,,,5,0,5,0,,,,,,,,,,,,,,,,,,,,,,,,0,,,,992.9974577959993,146,H,circle,0.0015804349995960365,,,,,,,,,1,0,,,,,,,,,,,,,989.2294787639994,989.2294787639994,989.2294787639994,989.2294787639994,990.7280977559994,990.7280977559994,990.7280977559994,990.7280977559994,990.7449785579993,990.7449785579993,990.7449785579993,990.7449785579993,switch,letter,lettSwt,j,0.7367781980001382,noRew,0,,,,,,,0,991.4958891169999,,,,29784,2022-09-16_10h26.56.074,vts_reward_expectancy,2022.2.4,59.9292494456976,
,,,,,,,,,,,,,,,,,,,,,,,,,,,,,,,,,,,,,,,,,,6,0,6,0,,,,,,,,,,,,,,,,,,,,,,,,0,,,,997.635842275,181,W,star,0.0014467630007857224,,,,,,,,,1,0,,,,,,,,,,,,,993.9845944399995,993.9845944399995,993.9845944399995,993.9845944399995,995.4834152639996,995.4834152639996,995.4834152639996,995.4834152639996,995.5002663139994,995.5002663139994,995.5002663139994,995.5002663139994,switch,number,numSwt,f,0.6297794360007174,noRew,0,,,,,,,0,996.1340781879999,,,,29784,2022-09-16_10h26.56.074,vts_reward_expectancy,2022.2.4,59.9292494456976,
,,,,,,,,,,,,,,,,,,,,,,,,,,,,,,,,,,,,,,,,,,7,0,7,0,,,,,,,,,,,,,,,,,,,,,,,,0,,,,1002.140683142,167,B,hexagon,0.0014980180003476562,,,,,,,,,1,0,,,,,,,,,,,,,998.6246572629998,998.6246572629998,998.6246572629998,998.6246572629998,1000.1218471369993,1000.1218471369993,1000.1218471369993,1000.1218471369993,1000.1385770679999,1000.1385770679999,1000.1385770679999,1000.1385770679999,switch,letter,lettSwt,j,0.48623690500062366,noRew,0,,,,,,,0,1000.6390944949999,,,,29784,2022-09-16_10h26.56.074,vts_reward_expectancy,2022.2.4,59.9292494456976,
,,,,,,,,,,,,,,,,,,,,,,,,,,,,,,,,,,,,,,,,,,8,0,8,0,,,,,,,,,,,,,,,,,,,,,,,,0,,,,1007.0129936919993,167,H,star,0.0016046920000007958,,,,,,,,,1,0,,,,,,,,,,,,,1003.1287648379994,1003.1287648379994,1003.1287648379994,1003.1287648379994,1004.626942715,1004.626942715,1004.626942715,1004.626942715,1004.6435059629994,1004.6435059629994,1004.6435059629994,1004.6435059629994,switch,number,numSwt,f,0.8620754910007236,noRew,0,,,,,,,0,1005.5112405979999,,,,29784,2022-09-16_10h26.56.074,vts_reward_expectancy,2022.2.4,59.9292494456976,
,,,,,,,,,,,,,,,,,,,,,,,,,,,,,,,,,,,,,,,,,,9,0,9,0,,,,,,,,,,,,,,,,,,,,,,,,0,,,,1011.7016415489998,146,Y,circle,0.0015427279995492427,,,,,,,,,1,0,,,,,,,,,,,,,1008.0020734439995,1008.0020734439995,1008.0020734439995,1008.0020734439995,1009.4990904669994,1009.4990904669994,1009.4990904669994,1009.4990904669994,1009.5158123809997,1009.5158123809997,1009.5158123809997,1009.5158123809997,switch,letter,lettSwt,k,0.6697116720006306,noRew,0,,,,,,,0,1010.1999205889997,,,,29784,2022-09-16_10h26.56.074,vts_reward_expectancy,2022.2.4,59.9292494456976,
