LTriangleOpac,LCircleOpac,LHexagonOpac,LStarOpac,RTriangleOpac,RCircleOpac,RHexagonOpac,RStarOpac,LShape_ID,RShape_ID,training_blocks.thisRepN,training_blocks.thisTrialN,training_blocks.thisN,training_blocks.thisIndex,training.thisRepN,training.thisTrialN,training.thisN,training.thisIndex,task1_prac_redo.thisRepN,task1_prac_redo.thisTrialN,task1_prac_redo.thisN,task1_prac_redo.thisIndex,task1_prac_trials.thisRepN,task1_prac_trials.thisTrialN,task1_prac_trials.thisN,task1_prac_trials.thisIndex,task2_prac_redo.thisRepN,task2_prac_redo.thisTrialN,task2_prac_redo.thisN,task2_prac_redo.thisIndex,task2_praac_trials.thisRepN,task2_praac_trials.thisTrialN,task2_praac_trials.thisN,task2_praac_trials.thisIndex,vts_prac_redo.thisRepN,vts_prac_redo.thisTrialN,vts_prac_redo.thisN,vts_prac_redo.thisIndex,vts_practice_trials.thisRepN,vts_practice_trials.thisTrialN,vts_practice_trials.thisN,vts_practice_trials.thisIndex,trials_norew.thisRepN,trials_norew.thisTrialN,trials_norew.thisN,trials_norew.thisIndex,block.thisRepN,block.thisTrialN,block.thisN,block.thisIndex,trials_rew.thisRepN,trials_rew.thisTrialN,trials_rew.thisN,trials_rew.thisIndex,key_resp.started,key_resp.keys,key_resp.rt,training_fix.started,left_circle.started,right_circle.started,left_triangle.started,right_triangle.started,left_star.started,right_star.started,left_hexagon.started,right_hexagon.started,training_resp.started,training_resp.keys,training_resp.rt,points_trial,points_cumul,trainBlock,training_feedback_txt.started,training_feedback_txt.stopped,curr_topStim,curr_bottStim,curr_shape,ISI.started,fix.started,fix.stopped,tgt_fix_prac1.started,top_target_prac1.started,bott_target_prac1.started,target_resp_prac1.started,acc,E1,target_resp_prac1.keys,target_resp_prac1.rt,pracBlock,prac_fback_text.started,tgt_fix_prac2.started,top_target_prac2.started,bott_target_prac2.started,target_resp_prac2.started,target_resp_prac2.keys,target_resp_prac2.rt,star.started,hegagon.started,triangle.started,circle.started,star.stopped,hegagon.stopped,triangle.stopped,circle.stopped,top_target.started,tgt_fix.started,bot_target.started,target_resp.started,alt,task,condition,target_resp.keys,target_resp.rt,rewCond,vts_fback.started,blockNum,norew_fback.started,norew_fback.stopped,key_resp_2.keys,key_resp_2.rt,rewExpect,feedbk_text.started,feedbk_text.stopped,text_3.started,text_3.stopped,button.started,debrief.index,debrief.itemText,debrief.type,debrief.granularity,debrief.font,debrief.markerColor,debrief.response,debrief.rt,button.numClicks,button.timesOn,button.timesOff,participant,date,expName,psychopyVersion,frameRate,
,,,,,,,,,,,,,,,,,,,,,,,,,,,,,,,,,,,,,,,,,,,,,,,,,,,,,,46.13901840199833,space,21.766604443000688,,,,,,,,,,,,,,,,,,,,,,,,,,,,,,,,,,,,,,,,,,,,,,,,,,,,,,,,,,,,,,,,,,,,,,,,,,,,,,,,,36290,2022-09-21_10h13.54.520,vts_reward_expectancy_OFFLINE,2022.2.4,59.912243422048526,
1,0,0,0,0,1,0,0,triangle,circle,0,0,0,0,0,0,0,0,,,,,,,,,,,,,,,,,,,,,,,,,,,,,,,,,,,,,,,,100.62456291600029,100.97659372699854,100.97659372699854,100.97659372699854,100.97659372699854,100.97659372699854,100.97659372699854,100.97659372699854,100.97659372699854,100.97659372699854,l,1.0721525110020593,1,1,0,102.12676995400034,,,,,,,,,,,,,,,,,,,,,,,,,,,,,,,,,,,,,,,,,,,,,,,,,,,,,,,,,,,,,,,,,36290,2022-09-21_10h13.54.520,vts_reward_expectancy_OFFLINE,2022.2.4,59.912243422048526,
1,0,0,0,0,0,1,0,triangle,hexagon,0,0,0,0,0,1,1,1,,,,,,,,,,,,,,,,,,,,,,,,,,,,,,,,,,,,,,,,103.62219513799937,104.10623466799734,104.10623466799734,104.10623466799734,104.10623466799734,104.10623466799734,104.10623466799734,104.10623466799734,104.10623466799734,104.10623466799734,l,9.744385438003519,1,2,0,113.86681740899803,115.36840475799909,,,,,,,,,,,,,,,,,,,,,,,,,,,,,,,,,,,,,,,,,,,,,,,,,,,,,,,,,,,,,,,,36290,2022-09-21_10h13.54.520,vts_reward_expectancy_OFFLINE,2022.2.4,59.912243422048526,
0,1,0,0,1,0,0,0,circle,triangle,0,0,0,0,0,2,2,3,,,,,,,,,,,,,,,,,,,,,,,,,,,,,,,,,,,,,,,,115.36840475799909,115.8523954179982,115.8523954179982,115.8523954179982,115.8523954179982,115.8523954179982,115.8523954179982,115.8523954179982,115.8523954179982,115.8523954179982,l,0.9814340250013629,10,12,0,116.85361403799834,,,,,,,,,,,,,,,,,,,,,,,,,,,,,,,,,,,,,,,,,,,,,,,,,,,,,,,,,,,,,,,,,36290,2022-09-21_10h13.54.520,vts_reward_expectancy_OFFLINE,2022.2.4,59.912243422048526,
0,0,1,0,0,0,0,1,hexagon,star,0,0,0,0,0,3,3,8,,,,,,,,,,,,,,,,,,,,,,,,,,,,,,,,,,,,,,,,118.3551177249974,118.83921042099973,118.83921042099973,118.83921042099973,118.83921042099973,118.83921042099973,118.83921042099973,118.83921042099973,118.83921042099973,118.83921042099973,a,1.4515674160029448,10,22,0,120.30719579200013,,,,,,,,,,,,,,,,,,,,,,,,,,,,,,,,,,,,,,,,,,,,,,,,,,,,,,,,,,,,,,,,,36290,2022-09-21_10h13.54.520,vts_reward_expectancy_OFFLINE,2022.2.4,59.912243422048526,
0,1,0,0,0,0,0,1,circle,star,0,0,0,0,0,4,4,5,,,,,,,,,,,,,,,,,,,,,,,,,,,,,,,,,,,,,,,,121.80921880599999,122.29295110800012,122.29295110800012,122.29295110800012,122.29295110800012,122.29295110800012,122.29295110800012,122.29295110800012,122.29295110800012,122.29295110800012,l,1.4359319830000459,1,23,0,123.76110370699826,,,,,,,,,,,,,,,,,,,,,,,,,,,,,,,,,,,,,,,,,,,,,,,,,,,,,,,,,,,,,,,,,36290,2022-09-21_10h13.54.520,vts_reward_expectancy_OFFLINE,2022.2.4,59.912243422048526,
0,0,1,0,0,1,0,0,hexagon,circle,0,0,0,0,0,5,5,7,,,,,,,,,,,,,,,,,,,,,,,,,,,,,,,,,,,,,,,,125.26272251999762,125.74670208899988,125.74670208899988,125.74670208899988,125.74670208899988,125.74670208899988,125.74670208899988,125.74670208899988,125.74670208899988,125.74670208899988,a,1.7270439359999727,1,24,0,127.49887293999927,,,,,,,,,,,,,,,,,,,,,,,,,,,,,,,,,,,,,,,,,,,,,,,,,,,,,,,,,,,,,,,,,36290,2022-09-21_10h13.54.520,vts_reward_expectancy_OFFLINE,2022.2.4,59.912243422048526,
0,0,1,0,1,0,0,0,hexagon,triangle,0,0,0,0,0,6,6,6,,,,,,,,,,,,,,,,,,,,,,,,,,,,,,,,,,,,,,,,129.0002622719985,129.48443954899994,129.48443954899994,129.48443954899994,129.48443954899994,129.48443954899994,129.48443954899994,129.48443954899994,129.48443954899994,129.48443954899994,l,1.644215759002691,10,34,0,131.15268860499782,,,,,,,,,,,,,,,,,,,,,,,,,,,,,,,,,,,,,,,,,,,,,,,,,,,,,,,,,,,,,,,,,36290,2022-09-21_10h13.54.520,vts_reward_expectancy_OFFLINE,2022.2.4,59.912243422048526,
1,0,0,0,0,0,0,1,triangle,star,0,0,0,0,0,7,7,2,,,,,,,,,,,,,,,,,,,,,,,,,,,,,,,,,,,,,,,,132.65421450599752,133.13814914899922,133.13814914899922,133.13814914899922,133.13814914899922,133.13814914899922,133.13814914899922,133.13814914899922,133.13814914899922,133.13814914899922,a,1.1998949740009266,1,35,0,134.3560527720001,,,,,,,,,,,,,,,,,,,,,,,,,,,,,,,,,,,,,,,,,,,,,,,,,,,,,,,,,,,,,,,,,36290,2022-09-21_10h13.54.520,vts_reward_expectancy_OFFLINE,2022.2.4,59.912243422048526,
0,0,0,1,0,1,0,0,star ,circle,0,0,0,0,0,8,8,10,,,,,,,,,,,,,,,,,,,,,,,,,,,,,,,,,,,,,,,,135.857656786,136.3417392880001,136.3417392880001,136.3417392880001,136.3417392880001,136.3417392880001,136.3417392880001,136.3417392880001,136.3417392880001,136.3417392880001,l,1.5958507410032325,10,45,0,137.96039465300055,,,,,,,,,,,,,,,,,,,,,,,,,,,,,,,,,,,,,,,,,,,,,,,,,,,,,,,,,,,,,,,,,36290,2022-09-21_10h13.54.520,vts_reward_expectancy_OFFLINE,2022.2.4,59.912243422048526,
0,1,0,0,0,0,1,0,circle,hexagon,0,0,0,0,0,9,9,4,,,,,,,,,,,,,,,,,,,,,,,,,,,,,,,,,,,,,,,,139.4617359570002,139.94570223299888,139.94570223299888,139.94570223299888,139.94570223299888,139.94570223299888,139.94570223299888,139.94570223299888,139.94570223299888,139.94570223299888,l,1.7360447760038369,10,55,0,141.71402743399813,,,,,,,,,,,,,,,,,,,,,,,,,,,,,,,,,,,,,,,,,,,,,,,,,,,,,,,,,,,,,,,,,36290,2022-09-21_10h13.54.520,vts_reward_expectancy_OFFLINE,2022.2.4,59.912243422048526,
0,0,0,1,1,0,0,0,star,triangle,0,0,0,0,0,10,10,9,,,,,,,,,,,,,,,,,,,,,,,,,,,,,,,,,,,,,,,,143.2158093759972,143.6998219349989,143.6998219349989,143.6998219349989,143.6998219349989,143.6998219349989,143.6998219349989,143.6998219349989,143.6998219349989,143.6998219349989,a,2.6615730480043567,1,56,0,146.38606678299766,,,,,,,,,,,,,,,,,,,,,,,,,,,,,,,,,,,,,,,,,,,,,,,,,,,,,,,,,,,,,,,,,36290,2022-09-21_10h13.54.520,vts_reward_expectancy_OFFLINE,2022.2.4,59.912243422048526,
0,0,0,1,0,0,1,0,star,hexagon,0,0,0,0,0,11,11,11,,,,,,,,,,,,,,,,,,,,,,,,,,,,,,,,,,,,,,,,147.8876307850005,148.37140425899997,148.37140425899997,148.37140425899997,148.37140425899997,148.37140425899997,148.37140425899997,148.37140425899997,148.37140425899997,148.37140425899997,l,1.3738385850010673,10,66,0,149.7732178639999,,,,,,,,,,,,,,,,,,,,,,,,,,,,,,,,,,,,,,,,,,,,,,,,,,,,,,,,,,,,,,,,,36290,2022-09-21_10h13.54.520,vts_reward_expectancy_OFFLINE,2022.2.4,59.912243422048526,
0,0,1,0,0,0,0,1,hexagon,star,0,0,0,0,1,0,12,8,,,,,,,,,,,,,,,,,,,,,,,,,,,,,,,,,,,,,,,,151.27482077400055,151.75858281399996,151.75858281399996,151.75858281399996,151.75858281399996,151.75858281399996,151.75858281399996,151.75858281399996,151.75858281399996,151.75858281399996,a,1.114978625006188,1,67,0,152.89343086000008,,,,,,,,,,,,,,,,,,,,,,,,,,,,,,,,,,,,,,,,,,,,,,,,,,,,,,,,,,,,,,,,,36290,2022-09-21_10h13.54.520,vts_reward_expectancy_OFFLINE,2022.2.4,59.912243422048526,
1,0,0,0,0,0,1,0,triangle,hexagon,0,0,0,0,1,1,13,1,,,,,,,,,,,,,,,,,,,,,,,,,,,,,,,,,,,,,,,,154.39486626699727,154.8787863039979,154.8787863039979,154.8787863039979,154.8787863039979,154.8787863039979,154.8787863039979,154.8787863039979,154.8787863039979,154.8787863039979,a,1.2189084340025147,10,77,0,156.13002621099804,,,,,,,,,,,,,,,,,,,,,,,,,,,,,,,,,,,,,,,,,,,,,,,,,,,,,,,,,,,,,,,,,36290,2022-09-21_10h13.54.520,vts_reward_expectancy_OFFLINE,2022.2.4,59.912243422048526,
0,0,1,0,1,0,0,0,hexagon,triangle,0,0,0,0,1,2,14,6,,,,,,,,,,,,,,,,,,,,,,,,,,,,,,,,,,,,,,,,157.63230696999744,158.1156148509981,158.1156148509981,158.1156148509981,158.1156148509981,158.1156148509981,158.1156148509981,158.1156148509981,158.1156148509981,158.1156148509981,a,2.8942294430016773,1,78,0,161.03562695599976,,,,,,,,,,,,,,,,,,,,,,,,,,,,,,,,,,,,,,,,,,,,,,,,,,,,,,,,,,,,,,,,,36290,2022-09-21_10h13.54.520,vts_reward_expectancy_OFFLINE,2022.2.4,59.912243422048526,
1,0,0,0,0,1,0,0,triangle,circle,0,0,0,0,1,3,15,0,,,,,,,,,,,,,,,,,,,,,,,,,,,,,,,,,,,,,,,,162.53721212299934,163.02118750599766,163.02118750599766,163.02118750599766,163.02118750599766,163.02118750599766,163.02118750599766,163.02118750599766,163.02118750599766,163.02118750599766,a,0.9078427700042084,10,88,0,163.95543730200006,,,,,,,,,,,,,,,,,,,,,,,,,,,,,,,,,,,,,,,,,,,,,,,,,,,,,,,,,,,,,,,,,36290,2022-09-21_10h13.54.520,vts_reward_expectancy_OFFLINE,2022.2.4,59.912243422048526,
1,0,0,0,0,0,0,1,triangle,star,0,0,0,0,1,4,16,2,,,,,,,,,,,,,,,,,,,,,,,,,,,,,,,,,,,,,,,,165.45746018499995,165.94094746200062,165.94094746200062,165.94094746200062,165.94094746200062,165.94094746200062,165.94094746200062,165.94094746200062,165.94094746200062,165.94094746200062,l,0.64494733200263,10,98,0,166.6085355239993,,,,,,,,,,,,,,,,,,,,,,,,,,,,,,,,,,,,,,,,,,,,,,,,,,,,,,,,,,,,,,,,,36290,2022-09-21_10h13.54.520,vts_reward_expectancy_OFFLINE,2022.2.4,59.912243422048526,
0,0,0,1,1,0,0,0,star,triangle,0,0,0,0,1,5,17,9,,,,,,,,,,,,,,,,,,,,,,,,,,,,,,,,,,,,,,,,168.11006197700044,168.59416955099732,168.59416955099732,168.59416955099732,168.59416955099732,168.59416955099732,168.59416955099732,168.59416955099732,168.59416955099732,168.59416955099732,a,1.8238223650041618,1,99,0,170.4458093329995,,,,,,,,,,,,,,,,,,,,,,,,,,,,,,,,,,,,,,,,,,,,,,,,,,,,,,,,,,,,,,,,,36290,2022-09-21_10h13.54.520,vts_reward_expectancy_OFFLINE,2022.2.4,59.912243422048526,
0,1,0,0,1,0,0,0,circle,triangle,0,0,0,0,1,6,18,3,,,,,,,,,,,,,,,,,,,,,,,,,,,,,,,,,,,,,,,,171.94749209099973,172.4314639289987,172.4314639289987,172.4314639289987,172.4314639289987,172.4314639289987,172.4314639289987,172.4314639289987,172.4314639289987,172.4314639289987,l,0.9374314430024242,1,100,0,173.39921302899893,,,,,,,,,,,,,,,,,,,,,,,,,,,,,,,,,,,,,,,,,,,,,,,,,,,,,,,,,,,,,,,,,36290,2022-09-21_10h13.54.520,vts_reward_expectancy_OFFLINE,2022.2.4,59.912243422048526,
0,1,0,0,0,0,0,1,circle,star,0,0,0,0,1,7,19,5,,,,,,,,,,,,,,,,,,,,,,,,,,,,,,,,,,,,,,,,174.90083007299836,175.384839645998,175.384839645998,175.384839645998,175.384839645998,175.384839645998,175.384839645998,175.384839645998,175.384839645998,175.384839645998,l,1.8638517350045731,10,110,0,177.27017451400025,,,,,,,,,,,,,,,,,,,,,,,,,,,,,,,,,,,,,,,,,,,,,,,,,,,,,,,,,,,,,,,,,36290,2022-09-21_10h13.54.520,vts_reward_expectancy_OFFLINE,2022.2.4,59.912243422048526,
0,0,0,1,0,0,1,0,star,hexagon,0,0,0,0,1,8,20,11,,,,,,,,,,,,,,,,,,,,,,,,,,,,,,,,,,,,,,,,178.7717587779989,179.25568627999746,179.25568627999746,179.25568627999746,179.25568627999746,179.25568627999746,179.25568627999746,179.25568627999746,179.25568627999746,179.25568627999746,l,1.5457010040045134,1,111,0,180.8240998379988,,,,,,,,,,,,,,,,,,,,,,,,,,,,,,,,,,,,,,,,,,,,,,,,,,,,,,,,,,,,,,,,,36290,2022-09-21_10h13.54.520,vts_reward_expectancy_OFFLINE,2022.2.4,59.912243422048526,
0,0,1,0,0,1,0,0,hexagon,circle,0,0,0,0,1,9,21,7,,,,,,,,,,,,,,,,,,,,,,,,,,,,,,,,,,,,,,,,182.32565473399882,182.80972376799764,182.80972376799764,182.80972376799764,182.80972376799764,182.80972376799764,182.80972376799764,182.80972376799764,182.80972376799764,182.80972376799764,a,1.3749229900022328,1,112,0,184.2114240230003,,,,,,,,,,,,,,,,,,,,,,,,,,,,,,,,,,,,,,,,,,,,,,,,,,,,,,,,,,,,,,,,,36290,2022-09-21_10h13.54.520,vts_reward_expectancy_OFFLINE,2022.2.4,59.912243422048526,
0,0,0,1,0,1,0,0,star ,circle,0,0,0,0,1,10,22,10,,,,,,,,,,,,,,,,,,,,,,,,,,,,,,,,,,,,,,,,185.7127218179994,186.196881115,186.196881115,186.196881115,186.196881115,186.196881115,186.196881115,186.196881115,186.196881115,186.196881115,l,1.9251158210026915,1,113,0,188.14882089199818,,,,,,,,,,,,,,,,,,,,,,,,,,,,,,,,,,,,,,,,,,,,,,,,,,,,,,,,,,,,,,,,,36290,2022-09-21_10h13.54.520,vts_reward_expectancy_OFFLINE,2022.2.4,59.912243422048526,
0,1,0,0,0,0,1,0,circle,hexagon,0,0,0,0,1,11,23,4,,,,,,,,,,,,,,,,,,,,,,,,,,,,,,,,,,,,,,,,189.65046424699904,190.13427594699897,190.13427594699897,190.13427594699897,190.13427594699897,190.13427594699897,190.13427594699897,190.13427594699897,190.13427594699897,190.13427594699897,a,3.1543506260059075,1,114,0,193.3212029339993,,,,,,,,,,,,,,,,,,,,,,,,,,,,,,,,,,,,,,,,,,,,,,,,,,,,,,,,,,,,,,,,,36290,2022-09-21_10h13.54.520,vts_reward_expectancy_OFFLINE,2022.2.4,59.912243422048526,
0,1,0,0,0,0,1,0,circle,hexagon,0,0,0,0,2,0,24,4,,,,,,,,,,,,,,,,,,,,,,,,,,,,,,,,,,,,,,,,194.8228283139979,195.30661551799858,195.30661551799858,195.30661551799858,195.30661551799858,195.30661551799858,195.30661551799858,195.30661551799858,195.30661551799858,195.30661551799858,a,5.062056817001576,1,115,0,200.39562976399975,,,,,,,,,,,,,,,,,,,,,,,,,,,,,,,,,,,,,,,,,,,,,,,,,,,,,,,,,,,,,,,,,36290,2022-09-21_10h13.54.520,vts_reward_expectancy_OFFLINE,2022.2.4,59.912243422048526,
0,0,1,0,0,0,0,1,hexagon,star,0,0,0,0,2,1,25,8,,,,,,,,,,,,,,,,,,,,,,,,,,,,,,,,,,,,,,,,201.89730012499786,202.38138270999843,202.38138270999843,202.38138270999843,202.38138270999843,202.38138270999843,202.38138270999843,202.38138270999843,202.38138270999843,202.38138270999843,l,1.204046251001273,10,125,0,203.61606773099993,,,,,,,,,,,,,,,,,,,,,,,,,,,,,,,,,,,,,,,,,,,,,,,,,,,,,,,,,,,,,,,,,36290,2022-09-21_10h13.54.520,vts_reward_expectancy_OFFLINE,2022.2.4,59.912243422048526,
0,0,1,0,0,1,0,0,hexagon,circle,0,0,0,0,2,2,26,7,,,,,,,,,,,,,,,,,,,,,,,,,,,,,,,,,,,,,,,,205.11772468699928,205.6016463269989,205.6016463269989,205.6016463269989,205.6016463269989,205.6016463269989,205.6016463269989,205.6016463269989,205.6016463269989,205.6016463269989,l,3.4633972180054116,1,126,0,209.08861973699823,,,,,,,,,,,,,,,,,,,,,,,,,,,,,,,,,,,,,,,,,,,,,,,,,,,,,,,,,,,,,,,,,36290,2022-09-21_10h13.54.520,vts_reward_expectancy_OFFLINE,2022.2.4,59.912243422048526,
1,0,0,0,0,1,0,0,triangle,circle,0,0,0,0,2,3,27,0,,,,,,,,,,,,,,,,,,,,,,,,,,,,,,,,,,,,,,,,210.59017275299993,211.07390424299956,211.07390424299956,211.07390424299956,211.07390424299956,211.07390424299956,211.07390424299956,211.07390424299956,211.07390424299956,211.07390424299956,a,0.7588157290010713,10,136,0,211.8583340139994,,,,,,,,,,,,,,,,,,,,,,,,,,,,,,,,,,,,,,,,,,,,,,,,,,,,,,,,,,,,,,,,,36290,2022-09-21_10h13.54.520,vts_reward_expectancy_OFFLINE,2022.2.4,59.912243422048526,
0,0,0,1,1,0,0,0,star,triangle,0,0,0,0,2,4,28,9,,,,,,,,,,,,,,,,,,,,,,,,,,,,,,,,,,,,,,,,213.35983981900063,213.84405182899718,213.84405182899718,213.84405182899718,213.84405182899718,213.84405182899718,213.84405182899718,213.84405182899718,213.84405182899718,213.84405182899718,l,1.6617677829999593,10,146,0,215.52917400799925,,,,,,,,,,,,,,,,,,,,,,,,,,,,,,,,,,,,,,,,,,,,,,,,,,,,,,,,,,,,,,,,,36290,2022-09-21_10h13.54.520,vts_reward_expectancy_OFFLINE,2022.2.4,59.912243422048526,
0,1,0,0,0,0,0,1,circle,star,0,0,0,0,2,5,29,5,,,,,,,,,,,,,,,,,,,,,,,,,,,,,,,,,,,,,,,,217.03059079800005,217.51475485799892,217.51475485799892,217.51475485799892,217.51475485799892,217.51475485799892,217.51475485799892,217.51475485799892,217.51475485799892,217.51475485799892,l,0.7027768190018833,1,147,0,218.2486782369997,,,,,,,,,,,,,,,,,,,,,,,,,,,,,,,,,,,,,,,,,,,,,,,,,,,,,,,,,,,,,,,,,36290,2022-09-21_10h13.54.520,vts_reward_expectancy_OFFLINE,2022.2.4,59.912243422048526,
1,0,0,0,0,0,1,0,triangle,hexagon,0,0,0,0,2,6,30,1,,,,,,,,,,,,,,,,,,,,,,,,,,,,,,,,,,,,,,,,219.7504816719993,220.23429611699976,220.23429611699976,220.23429611699976,220.23429611699976,220.23429611699976,220.23429611699976,220.23429611699976,220.23429611699976,220.23429611699976,a,0.7840662070047983,10,157,0,221.03508569000041,,,,,,,,,,,,,,,,,,,,,,,,,,,,,,,,,,,,,,,,,,,,,,,,,,,,,,,,,,,,,,,,,36290,2022-09-21_10h13.54.520,vts_reward_expectancy_OFFLINE,2022.2.4,59.912243422048526,
0,0,0,1,0,1,0,0,star ,circle,0,0,0,0,2,7,31,10,,,,,,,,,,,,,,,,,,,,,,,,,,,,,,,,,,,,,,,,222.53675899799782,223.02056073799758,223.02056073799758,223.02056073799758,223.02056073799758,223.02056073799758,223.02056073799758,223.02056073799758,223.02056073799758,223.02056073799758,l,2.2046508860039467,1,158,0,225.25632364099874,,,,,,,,,,,,,,,,,,,,,,,,,,,,,,,,,,,,,,,,,,,,,,,,,,,,,,,,,,,,,,,,,36290,2022-09-21_10h13.54.520,vts_reward_expectancy_OFFLINE,2022.2.4,59.912243422048526,
0,0,1,0,1,0,0,0,hexagon,triangle,0,0,0,0,2,8,32,6,,,,,,,,,,,,,,,,,,,,,,,,,,,,,,,,,,,,,,,,226.75814682899727,227.2418965399993,227.2418965399993,227.2418965399993,227.2418965399993,227.2418965399993,227.2418965399993,227.2418965399993,227.2418965399993,227.2418965399993,l,0.9026312460046029,10,168,0,228.17632830799994,,,,,,,,,,,,,,,,,,,,,,,,,,,,,,,,,,,,,,,,,,,,,,,,,,,,,,,,,,,,,,,,,36290,2022-09-21_10h13.54.520,vts_reward_expectancy_OFFLINE,2022.2.4,59.912243422048526,
0,0,0,1,0,0,1,0,star,hexagon,0,0,0,0,2,9,33,11,,,,,,,,,,,,,,,,,,,,,,,,,,,,,,,,,,,,,,,,229.6778819229985,230.16181222500018,230.16181222500018,230.16181222500018,230.16181222500018,230.16181222500018,230.16181222500018,230.16181222500018,230.16181222500018,230.16181222500018,l,1.6952982010043343,10,178,0,231.88034064900057,,,,,,,,,,,,,,,,,,,,,,,,,,,,,,,,,,,,,,,,,,,,,,,,,,,,,,,,,,,,,,,,,36290,2022-09-21_10h13.54.520,vts_reward_expectancy_OFFLINE,2022.2.4,59.912243422048526,
0,1,0,0,1,0,0,0,circle,triangle,0,0,0,0,2,10,34,3,,,,,,,,,,,,,,,,,,,,,,,,,,,,,,,,,,,,,,,,233.38199409299705,233.86570526799915,233.86570526799915,233.86570526799915,233.86570526799915,233.86570526799915,233.86570526799915,233.86570526799915,233.86570526799915,233.86570526799915,l,1.543832621002366,1,179,0,235.43428790899998,,,,,,,,,,,,,,,,,,,,,,,,,,,,,,,,,,,,,,,,,,,,,,,,,,,,,,,,,,,,,,,,,36290,2022-09-21_10h13.54.520,vts_reward_expectancy_OFFLINE,2022.2.4,59.912243422048526,
1,0,0,0,0,0,0,1,triangle,star,0,0,0,0,2,11,35,2,,,,,,,,,,,,,,,,,,,,,,,,,,,,,,,,,,,,,,,,236.93587638999816,237.41980477099787,237.41980477099787,237.41980477099787,237.41980477099787,237.41980477099787,237.41980477099787,237.41980477099787,237.41980477099787,237.41980477099787,a,1.6863237410034344,10,189,0,239.13815977099875,,,,,,,,,,,,,,,,,,,,,,,,,,,,,,,,,,,,,,,,,,,,,,,,,,,,,,,,,,,,,,,,,36290,2022-09-21_10h13.54.520,vts_reward_expectancy_OFFLINE,2022.2.4,59.912243422048526,
0,1,0,0,1,0,0,0,circle,triangle,1,0,1,0,0,0,0,3,,,,,,,,,,,,,,,,,,,,,,,,,,,,,,,,,,,,,,,,252.2723890979978,252.75338019899937,252.75338019899937,252.75338019899937,252.75338019899937,252.75338019899937,252.75338019899937,252.75338019899937,252.75338019899937,252.75338019899937,l,0.6635484250000445,10,199,1,253.43752797100024,,,,,,,,,,,,,,,,,,,,,,,,,,,,,,,,,,,,,,,,,,,,,,,,,,,,,,,,,,,,,,,,,36290,2022-09-21_10h13.54.520,vts_reward_expectancy_OFFLINE,2022.2.4,59.912243422048526,
1,0,0,0,0,0,0,1,triangle,star,1,0,1,0,0,1,1,2,,,,,,,,,,,,,,,,,,,,,,,,,,,,,,,,,,,,,,,,254.93928768799742,255.42311992800023,255.42311992800023,255.42311992800023,255.42311992800023,255.42311992800023,255.42311992800023,255.42311992800023,255.42311992800023,255.42311992800023,a,2.3468085810054617,1,200,1,257.7923579189992,,,,,,,,,,,,,,,,,,,,,,,,,,,,,,,,,,,,,,,,,,,,,,,,,,,,,,,,,,,,,,,,,36290,2022-09-21_10h13.54.520,vts_reward_expectancy_OFFLINE,2022.2.4,59.912243422048526,
0,1,0,0,0,0,0,1,circle,star,1,0,1,0,0,2,2,5,,,,,,,,,,,,,,,,,,,,,,,,,,,,,,,,,,,,,,,,259.2938979319988,259.7779807839979,259.7779807839979,259.7779807839979,259.7779807839979,259.7779807839979,259.7779807839979,259.7779807839979,259.7779807839979,259.7779807839979,l,3.3364797120011644,10,210,1,263.1313585429998,,,,,,,,,,,,,,,,,,,,,,,,,,,,,,,,,,,,,,,,,,,,,,,,,,,,,,,,,,,,,,,,,36290,2022-09-21_10h13.54.520,vts_reward_expectancy_OFFLINE,2022.2.4,59.912243422048526,
1,0,0,0,0,0,1,0,triangle,hexagon,1,0,1,0,0,3,3,1,,,,,,,,,,,,,,,,,,,,,,,,,,,,,,,,,,,,,,,,264.6331549940005,265.11691415599853,265.11691415599853,265.11691415599853,265.11691415599853,265.11691415599853,265.11691415599853,265.11691415599853,265.11691415599853,265.11691415599853,a,2.0858391820002,10,220,1,267.21939915999974,,,,,,,,,,,,,,,,,,,,,,,,,,,,,,,,,,,,,,,,,,,,,,,,,,,,,,,,,,,,,,,,,36290,2022-09-21_10h13.54.520,vts_reward_expectancy_OFFLINE,2022.2.4,59.912243422048526,
0,0,1,0,0,0,0,1,hexagon,star,1,0,1,0,0,4,4,8,,,,,,,,,,,,,,,,,,,,,,,,,,,,,,,,,,,,,,,,268.72088458899816,269.20469745399896,269.20469745399896,269.20469745399896,269.20469745399896,269.20469745399896,269.20469745399896,269.20469745399896,269.20469745399896,269.20469745399896,l,2.4280480470042676,1,221,1,271.65793228799885,,,,,,,,,,,,,,,,,,,,,,,,,,,,,,,,,,,,,,,,,,,,,,,,,,,,,,,,,,,,,,,,,36290,2022-09-21_10h13.54.520,vts_reward_expectancy_OFFLINE,2022.2.4,59.912243422048526,
0,0,0,1,1,0,0,0,star,triangle,1,0,1,0,0,5,5,9,,,,,,,,,,,,,,,,,,,,,,,,,,,,,,,,,,,,,,,,273.15915656499783,273.6433700589987,273.6433700589987,273.6433700589987,273.6433700589987,273.6433700589987,273.6433700589987,273.6433700589987,273.6433700589987,273.6433700589987,l,0.7095191100015654,10,231,1,274.3773282869988,,,,,,,,,,,,,,,,,,,,,,,,,,,,,,,,,,,,,,,,,,,,,,,,,,,,,,,,,,,,,,,,,36290,2022-09-21_10h13.54.520,vts_reward_expectancy_OFFLINE,2022.2.4,59.912243422048526,
0,0,0,1,0,1,0,0,star ,circle,1,0,1,0,0,6,6,10,,,,,,,,,,,,,,,,,,,,,,,,,,,,,,,,,,,,,,,,275.87899825299974,276.3628236320001,276.3628236320001,276.3628236320001,276.3628236320001,276.3628236320001,276.3628236320001,276.3628236320001,276.3628236320001,276.3628236320001,a,2.526915459002339,10,241,1,278.9155361979974,,,,,,,,,,,,,,,,,,,,,,,,,,,,,,,,,,,,,,,,,,,,,,,,,,,,,,,,,,,,,,,,,36290,2022-09-21_10h13.54.520,vts_reward_expectancy_OFFLINE,2022.2.4,59.912243422048526,
0,0,1,0,0,1,0,0,hexagon,circle,1,0,1,0,0,7,7,7,,,,,,,,,,,,,,,,,,,,,,,,,,,,,,,,,,,,,,,,280.417262130999,280.901161062,280.901161062,280.901161062,280.901161062,280.901161062,280.901161062,280.901161062,280.901161062,280.901161062,a,2.3713030930048262,1,242,1,283.30367364799895,,,,,,,,,,,,,,,,,,,,,,,,,,,,,,,,,,,,,,,,,,,,,,,,,,,,,,,,,,,,,,,,,36290,2022-09-21_10h13.54.520,vts_reward_expectancy_OFFLINE,2022.2.4,59.912243422048526,
0,0,0,1,0,0,1,0,star,hexagon,1,0,1,0,0,8,8,11,,,,,,,,,,,,,,,,,,,,,,,,,,,,,,,,,,,,,,,,284.805320989999,285.2892411749999,285.2892411749999,285.2892411749999,285.2892411749999,285.2892411749999,285.2892411749999,285.2892411749999,285.2892411749999,285.2892411749999,l,5.663497787001688,1,243,1,290.97907530799785,,,,,,,,,,,,,,,,,,,,,,,,,,,,,,,,,,,,,,,,,,,,,,,,,,,,,,,,,,,,,,,,,36290,2022-09-21_10h13.54.520,vts_reward_expectancy_OFFLINE,2022.2.4,59.912243422048526,
0,0,1,0,1,0,0,0,hexagon,triangle,1,0,1,0,0,9,9,6,,,,,,,,,,,,,,,,,,,,,,,,,,,,,,,,,,,,,,,,292.4804766119996,292.964375749998,292.964375749998,292.964375749998,292.964375749998,292.964375749998,292.964375749998,292.964375749998,292.964375749998,292.964375749998,l,0.6132492380020267,10,253,1,293.598279136997,,,,,,,,,,,,,,,,,,,,,,,,,,,,,,,,,,,,,,,,,,,,,,,,,,,,,,,,,,,,,,,,,36290,2022-09-21_10h13.54.520,vts_reward_expectancy_OFFLINE,2022.2.4,59.912243422048526,
0,1,0,0,0,0,1,0,circle,hexagon,1,0,1,0,0,10,10,4,,,,,,,,,,,,,,,,,,,,,,,,,,,,,,,,,,,,,,,,295.1000154829999,295.5839117350006,295.5839117350006,295.5839117350006,295.5839117350006,295.5839117350006,295.5839117350006,295.5839117350006,295.5839117350006,295.5839117350006,a,1.4095935900004406,10,263,1,297.0188820149997,,,,,,,,,,,,,,,,,,,,,,,,,,,,,,,,,,,,,,,,,,,,,,,,,,,,,,,,,,,,,,,,,36290,2022-09-21_10h13.54.520,vts_reward_expectancy_OFFLINE,2022.2.4,59.912243422048526,
1,0,0,0,0,1,0,0,triangle,circle,1,0,1,0,0,11,11,0,,,,,,,,,,,,,,,,,,,,,,,,,,,,,,,,,,,,,,,,298.52040324599875,299.0042808090002,299.0042808090002,299.0042808090002,299.0042808090002,299.0042808090002,299.0042808090002,299.0042808090002,299.0042808090002,299.0042808090002,a,1.0853875170032552,10,273,1,300.1221057019975,,,,,,,,,,,,,,,,,,,,,,,,,,,,,,,,,,,,,,,,,,,,,,,,,,,,,,,,,,,,,,,,,36290,2022-09-21_10h13.54.520,vts_reward_expectancy_OFFLINE,2022.2.4,59.912243422048526,
0,0,0,1,1,0,0,0,star,triangle,1,0,1,0,1,0,12,9,,,,,,,,,,,,,,,,,,,,,,,,,,,,,,,,,,,,,,,,301.62391604799996,302.107825674997,302.107825674997,302.107825674997,302.107825674997,302.107825674997,302.107825674997,302.107825674997,302.107825674997,302.107825674997,l,2.772859109001729,10,283,1,304.91089612499854,,,,,,,,,,,,,,,,,,,,,,,,,,,,,,,,,,,,,,,,,,,,,,,,,,,,,,,,,,,,,,,,,36290,2022-09-21_10h13.54.520,vts_reward_expectancy_OFFLINE,2022.2.4,59.912243422048526,
0,0,1,0,1,0,0,0,hexagon,triangle,1,0,1,0,1,1,13,6,,,,,,,,,,,,,,,,,,,,,,,,,,,,,,,,,,,,,,,,306.41269879899846,306.89644754599794,306.89644754599794,306.89644754599794,306.89644754599794,306.89644754599794,306.89644754599794,306.89644754599794,306.89644754599794,306.89644754599794,l,1.4416581180012145,1,284,1,308.3646909380004,,,,,,,,,,,,,,,,,,,,,,,,,,,,,,,,,,,,,,,,,,,,,,,,,,,,,,,,,,,,,,,,,36290,2022-09-21_10h13.54.520,vts_reward_expectancy_OFFLINE,2022.2.4,59.912243422048526,
1,0,0,0,0,0,0,1,triangle,star,1,0,1,0,1,2,14,2,,,,,,,,,,,,,,,,,,,,,,,,,,,,,,,,,,,,,,,,309.8663601389999,310.3502665519991,310.3502665519991,310.3502665519991,310.3502665519991,310.3502665519991,310.3502665519991,310.3502665519991,310.3502665519991,310.3502665519991,a,3.1072584290050145,10,294,1,313.4869732749976,,,,,,,,,,,,,,,,,,,,,,,,,,,,,,,,,,,,,,,,,,,,,,,,,,,,,,,,,,,,,,,,,36290,2022-09-21_10h13.54.520,vts_reward_expectancy_OFFLINE,2022.2.4,59.912243422048526,
0,1,0,0,0,0,1,0,circle,hexagon,1,0,1,0,1,3,15,4,,,,,,,,,,,,,,,,,,,,,,,,,,,,,,,,,,,,,,,,314.9888201729991,315.4726209039982,315.4726209039982,315.4726209039982,315.4726209039982,315.4726209039982,315.4726209039982,315.4726209039982,315.4726209039982,315.4726209039982,a,1.7283998290040472,1,295,1,317.2244320869977,,,,,,,,,,,,,,,,,,,,,,,,,,,,,,,,,,,,,,,,,,,,,,,,,,,,,,,,,,,,,,,,,36290,2022-09-21_10h13.54.520,vts_reward_expectancy_OFFLINE,2022.2.4,59.912243422048526,
0,0,0,1,0,0,1,0,star,hexagon,1,0,1,0,1,4,16,11,,,,,,,,,,,,,,,,,,,,,,,,,,,,,,,,,,,,,,,,318.7259982709984,319.20996738399845,319.20996738399845,319.20996738399845,319.20996738399845,319.20996738399845,319.20996738399845,319.20996738399845,319.20996738399845,319.20996738399845,l,4.847686971002986,1,296,1,324.08234818799974,,,,,,,,,,,,,,,,,,,,,,,,,,,,,,,,,,,,,,,,,,,,,,,,,,,,,,,,,,,,,,,,,36290,2022-09-21_10h13.54.520,vts_reward_expectancy_OFFLINE,2022.2.4,59.912243422048526,
0,0,0,1,0,1,0,0,star ,circle,1,0,1,0,1,5,17,10,,,,,,,,,,,,,,,,,,,,,,,,,,,,,,,,,,,,,,,,325.58399380099945,326.06789021700024,326.06789021700024,326.06789021700024,326.06789021700024,326.06789021700024,326.06789021700024,326.06789021700024,326.06789021700024,326.06789021700024,l,6.653147030003311,1,297,1,332.7418465970004,,,,,,,,,,,,,,,,,,,,,,,,,,,,,,,,,,,,,,,,,,,,,,,,,,,,,,,,,,,,,,,,,36290,2022-09-21_10h13.54.520,vts_reward_expectancy_OFFLINE,2022.2.4,59.912243422048526,
0,1,0,0,1,0,0,0,circle,triangle,1,0,1,0,1,6,18,3,,,,,,,,,,,,,,,,,,,,,,,,,,,,,,,,,,,,,,,,334.2432814219974,334.7276389469989,334.7276389469989,334.7276389469989,334.7276389469989,334.7276389469989,334.7276389469989,334.7276389469989,334.7276389469989,334.7276389469989,l,0.7139718740036187,10,307,1,335.4613265589978,,,,,,,,,,,,,,,,,,,,,,,,,,,,,,,,,,,,,,,,,,,,,,,,,,,,,,,,,,,,,,,,,36290,2022-09-21_10h13.54.520,vts_reward_expectancy_OFFLINE,2022.2.4,59.912243422048526,
0,0,1,0,0,1,0,0,hexagon,circle,1,0,1,0,1,7,19,7,,,,,,,,,,,,,,,,,,,,,,,,,,,,,,,,,,,,,,,,336.9630632139997,337.44685925999875,337.44685925999875,337.44685925999875,337.44685925999875,337.44685925999875,337.44685925999875,337.44685925999875,337.44685925999875,337.44685925999875,a,1.7465297580019978,10,317,1,339.2154462549988,,,,,,,,,,,,,,,,,,,,,,,,,,,,,,,,,,,,,,,,,,,,,,,,,,,,,,,,,,,,,,,,,36290,2022-09-21_10h13.54.520,vts_reward_expectancy_OFFLINE,2022.2.4,59.912243422048526,
0,1,0,0,0,0,0,1,circle,star,1,0,1,0,1,8,20,5,,,,,,,,,,,,,,,,,,,,,,,,,,,,,,,,,,,,,,,,340.71701952999865,341.20090068599893,341.20090068599893,341.20090068599893,341.20090068599893,341.20090068599893,341.20090068599893,341.20090068599893,341.20090068599893,341.20090068599893,a,1.6019685130013386,1,318,1,342.81931935899775,,,,,,,,,,,,,,,,,,,,,,,,,,,,,,,,,,,,,,,,,,,,,,,,,,,,,,,,,,,,,,,,,36290,2022-09-21_10h13.54.520,vts_reward_expectancy_OFFLINE,2022.2.4,59.912243422048526,
1,0,0,0,0,1,0,0,triangle,circle,1,0,1,0,1,9,21,0,,,,,,,,,,,,,,,,,,,,,,,,,,,,,,,,,,,,,,,,344.3208848849972,344.8049968439991,344.8049968439991,344.8049968439991,344.8049968439991,344.8049968439991,344.8049968439991,344.8049968439991,344.8049968439991,344.8049968439991,a,0.6522743220011762,10,328,1,345.4889144959998,,,,,,,,,,,,,,,,,,,,,,,,,,,,,,,,,,,,,,,,,,,,,,,,,,,,,,,,,,,,,,,,,36290,2022-09-21_10h13.54.520,vts_reward_expectancy_OFFLINE,2022.2.4,59.912243422048526,
1,0,0,0,0,0,1,0,triangle,hexagon,1,0,1,0,1,10,22,1,,,,,,,,,,,,,,,,,,,,,,,,,,,,,,,,,,,,,,,,346.9905852869997,347.4744195809981,347.4744195809981,347.4744195809981,347.4744195809981,347.4744195809981,347.4744195809981,347.4744195809981,347.4744195809981,347.4744195809981,l,2.159109162999812,10,338,1,349.66025564499796,,,,,,,,,,,,,,,,,,,,,,,,,,,,,,,,,,,,,,,,,,,,,,,,,,,,,,,,,,,,,,,,,36290,2022-09-21_10h13.54.520,vts_reward_expectancy_OFFLINE,2022.2.4,59.912243422048526,
0,0,1,0,0,0,0,1,hexagon,star,1,0,1,0,1,11,23,8,,,,,,,,,,,,,,,,,,,,,,,,,,,,,,,,,,,,,,,,351.1618708979986,351.64592195099976,351.64592195099976,351.64592195099976,351.64592195099976,351.64592195099976,351.64592195099976,351.64592195099976,351.64592195099976,351.64592195099976,a,2.4364074320037616,10,348,1,354.09879669899965,,,,,,,,,,,,,,,,,,,,,,,,,,,,,,,,,,,,,,,,,,,,,,,,,,,,,,,,,,,,,,,,,36290,2022-09-21_10h13.54.520,vts_reward_expectancy_OFFLINE,2022.2.4,59.912243422048526,
1,0,0,0,0,0,1,0,triangle,hexagon,1,0,1,0,2,0,24,1,,,,,,,,,,,,,,,,,,,,,,,,,,,,,,,,,,,,,,,,355.6001454449979,356.0841039810002,356.0841039810002,356.0841039810002,356.0841039810002,356.0841039810002,356.0841039810002,356.0841039810002,356.0841039810002,356.0841039810002,a,1.5892057150012988,10,358,1,357.7023713419985,,,,,,,,,,,,,,,,,,,,,,,,,,,,,,,,,,,,,,,,,,,,,,,,,,,,,,,,,,,,,,,,,36290,2022-09-21_10h13.54.520,vts_reward_expectancy_OFFLINE,2022.2.4,59.912243422048526,
0,1,0,0,0,0,1,0,circle,hexagon,1,0,1,0,2,1,25,4,,,,,,,,,,,,,,,,,,,,,,,,,,,,,,,,,,,,,,,,359.2040082579988,359.6878907680002,359.6878907680002,359.6878907680002,359.6878907680002,359.6878907680002,359.6878907680002,359.6878907680002,359.6878907680002,359.6878907680002,l,3.6410918350011343,10,368,1,363.35876008099876,,,,,,,,,,,,,,,,,,,,,,,,,,,,,,,,,,,,,,,,,,,,,,,,,,,,,,,,,,,,,,,,,36290,2022-09-21_10h13.54.520,vts_reward_expectancy_OFFLINE,2022.2.4,59.912243422048526,
1,0,0,0,0,1,0,0,triangle,circle,1,0,1,0,2,2,26,0,,,,,,,,,,,,,,,,,,,,,,,,,,,,,,,,,,,,,,,,364.86056713799917,365.3441669450003,365.3441669450003,365.3441669450003,365.3441669450003,365.3441669450003,365.3441669450003,365.3441669450003,365.3441669450003,365.3441669450003,a,0.8024979060028272,10,378,1,366.17869824199806,,,,,,,,,,,,,,,,,,,,,,,,,,,,,,,,,,,,,,,,,,,,,,,,,,,,,,,,,,,,,,,,,36290,2022-09-21_10h13.54.520,vts_reward_expectancy_OFFLINE,2022.2.4,59.912243422048526,
1,0,0,0,0,0,0,1,triangle,star,1,0,1,0,2,3,27,2,,,,,,,,,,,,,,,,,,,,,,,,,,,,,,,,,,,,,,,,367.6804096889973,368.1640600139981,368.1640600139981,368.1640600139981,368.1640600139981,368.1640600139981,368.1640600139981,368.1640600139981,368.1640600139981,368.1640600139981,a,2.6454231740026444,10,388,1,370.833624177998,,,,,,,,,,,,,,,,,,,,,,,,,,,,,,,,,,,,,,,,,,,,,,,,,,,,,,,,,,,,,,,,,36290,2022-09-21_10h13.54.520,vts_reward_expectancy_OFFLINE,2022.2.4,59.912243422048526,
0,0,0,1,0,1,0,0,star ,circle,1,0,1,0,2,4,28,10,,,,,,,,,,,,,,,,,,,,,,,,,,,,,,,,,,,,,,,,372.33523635099846,372.8191832759985,372.8191832759985,372.8191832759985,372.8191832759985,372.8191832759985,372.8191832759985,372.8191832759985,372.8191832759985,372.8191832759985,a,2.8784651850000955,10,398,1,375.72257655499925,,,,,,,,,,,,,,,,,,,,,,,,,,,,,,,,,,,,,,,,,,,,,,,,,,,,,,,,,,,,,,,,,36290,2022-09-21_10h13.54.520,vts_reward_expectancy_OFFLINE,2022.2.4,59.912243422048526,
0,0,0,1,1,0,0,0,star,triangle,1,0,1,0,2,5,29,9,,,,,,,,,,,,,,,,,,,,,,,,,,,,,,,,,,,,,,,,377.22428268399744,377.7081696009991,377.7081696009991,377.7081696009991,377.7081696009991,377.7081696009991,377.7081696009991,377.7081696009991,377.7081696009991,377.7081696009991,l,0.7650207450024027,10,408,1,378.49212966999767,,,,,,,,,,,,,,,,,,,,,,,,,,,,,,,,,,,,,,,,,,,,,,,,,,,,,,,,,,,,,,,,,36290,2022-09-21_10h13.54.520,vts_reward_expectancy_OFFLINE,2022.2.4,59.912243422048526,
0,0,1,0,0,1,0,0,hexagon,circle,1,0,1,0,2,6,30,7,,,,,,,,,,,,,,,,,,,,,,,,,,,,,,,,,,,,,,,,379.9939007899993,380.47765819599954,380.47765819599954,380.47765819599954,380.47765819599954,380.47765819599954,380.47765819599954,380.47765819599954,380.47765819599954,380.47765819599954,a,2.763925246003055,1,409,1,383.26410307399783,,,,,,,,,,,,,,,,,,,,,,,,,,,,,,,,,,,,,,,,,,,,,,,,,,,,,,,,,,,,,,,,,36290,2022-09-21_10h13.54.520,vts_reward_expectancy_OFFLINE,2022.2.4,59.912243422048526,
0,1,0,0,1,0,0,0,circle,triangle,1,0,1,0,2,7,31,3,,,,,,,,,,,,,,,,,,,,,,,,,,,,,,,,,,,,,,,,384.7660019149989,385.24976803699974,385.24976803699974,385.24976803699974,385.24976803699974,385.24976803699974,385.24976803699974,385.24976803699974,385.24976803699974,385.24976803699974,l,0.8069721950050734,10,419,1,386.0841580939996,,,,,,,,,,,,,,,,,,,,,,,,,,,,,,,,,,,,,,,,,,,,,,,,,,,,,,,,,,,,,,,,,36290,2022-09-21_10h13.54.520,vts_reward_expectancy_OFFLINE,2022.2.4,59.912243422048526,
0,0,1,0,0,0,0,1,hexagon,star,1,0,1,0,2,8,32,8,,,,,,,,,,,,,,,,,,,,,,,,,,,,,,,,,,,,,,,,387.58539497499805,388.0692782579972,388.0692782579972,388.0692782579972,388.0692782579972,388.0692782579972,388.0692782579972,388.0692782579972,388.0692782579972,388.0692782579972,a,4.964055756001471,10,429,1,393.05816717500056,,,,,,,,,,,,,,,,,,,,,,,,,,,,,,,,,,,,,,,,,,,,,,,,,,,,,,,,,,,,,,,,,36290,2022-09-21_10h13.54.520,vts_reward_expectancy_OFFLINE,2022.2.4,59.912243422048526,
0,0,0,1,0,0,1,0,star,hexagon,1,0,1,0,2,9,33,11,,,,,,,,,,,,,,,,,,,,,,,,,,,,,,,,,,,,,,,,394.5597845819975,395.04383352999866,395.04383352999866,395.04383352999866,395.04383352999866,395.04383352999866,395.04383352999866,395.04383352999866,395.04383352999866,395.04383352999866,l,2.509388806000061,1,430,1,397.5798833259978,,,,,,,,,,,,,,,,,,,,,,,,,,,,,,,,,,,,,,,,,,,,,,,,,,,,,,,,,,,,,,,,,36290,2022-09-21_10h13.54.520,vts_reward_expectancy_OFFLINE,2022.2.4,59.912243422048526,
0,1,0,0,0,0,0,1,circle,star,1,0,1,0,2,10,34,5,,,,,,,,,,,,,,,,,,,,,,,,,,,,,,,,,,,,,,,,399.08160594799847,399.5653367539999,399.5653367539999,399.5653367539999,399.5653367539999,399.5653367539999,399.5653367539999,399.5653367539999,399.5653367539999,399.5653367539999,a,2.3005604230020253,1,431,1,401.8844564209976,,,,,,,,,,,,,,,,,,,,,,,,,,,,,,,,,,,,,,,,,,,,,,,,,,,,,,,,,,,,,,,,,36290,2022-09-21_10h13.54.520,vts_reward_expectancy_OFFLINE,2022.2.4,59.912243422048526,
0,0,1,0,1,0,0,0,hexagon,triangle,1,0,1,0,2,11,35,6,,,,,,,,,,,,,,,,,,,,,,,,,,,,,,,,,,,,,,,,403.3861841990001,403.87003017999814,403.87003017999814,403.87003017999814,403.87003017999814,403.87003017999814,403.87003017999814,403.87003017999814,403.87003017999814,403.87003017999814,l,0.8437143300034222,1,432,1,404.73769345799883,,,,,,,,,,,,,,,,,,,,,,,,,,,,,,,,,,,,,,,,,,,,,,,,,,,,,,,,,,,,,,,,,36290,2022-09-21_10h13.54.520,vts_reward_expectancy_OFFLINE,2022.2.4,59.912243422048526,
0,0,1,0,0,0,0,1,hexagon,star,2,0,2,0,0,0,0,8,,,,,,,,,,,,,,,,,,,,,,,,,,,,,,,,,,,,,,,,417.2891864819976,417.76881156799936,417.76881156799936,417.76881156799936,417.76881156799936,417.76881156799936,417.76881156799936,417.76881156799936,417.76881156799936,417.76881156799936,a,1.2180342020037642,10,442,2,419.00329342499754,,,,,,,,,,,,,,,,,,,,,,,,,,,,,,,,,,,,,,,,,,,,,,,,,,,,,,,,,,,,,,,,,36290,2022-09-21_10h13.54.520,vts_reward_expectancy_OFFLINE,2022.2.4,59.912243422048526,
1,0,0,0,0,1,0,0,triangle,circle,2,0,2,0,0,1,1,0,,,,,,,,,,,,,,,,,,,,,,,,,,,,,,,,,,,,,,,,420.5052115439976,420.988933921999,420.988933921999,420.988933921999,420.988933921999,420.988933921999,420.988933921999,420.988933921999,420.988933921999,420.988933921999,a,0.5879067950008903,10,452,2,421.60625246199925,,,,,,,,,,,,,,,,,,,,,,,,,,,,,,,,,,,,,,,,,,,,,,,,,,,,,,,,,,,,,,,,,36290,2022-09-21_10h13.54.520,vts_reward_expectancy_OFFLINE,2022.2.4,59.912243422048526,
1,0,0,0,0,0,1,0,triangle,hexagon,2,0,2,0,0,2,2,1,,,,,,,,,,,,,,,,,,,,,,,,,,,,,,,,,,,,,,,,423.10779276799803,423.5918593419992,423.5918593419992,423.5918593419992,423.5918593419992,423.5918593419992,423.5918593419992,423.5918593419992,423.5918593419992,423.5918593419992,a,1.8025864730007015,10,462,2,425.42720851599734,,,,,,,,,,,,,,,,,,,,,,,,,,,,,,,,,,,,,,,,,,,,,,,,,,,,,,,,,,,,,,,,,36290,2022-09-21_10h13.54.520,vts_reward_expectancy_OFFLINE,2022.2.4,59.912243422048526,
0,0,1,0,0,1,0,0,hexagon,circle,2,0,2,0,0,3,3,7,,,,,,,,,,,,,,,,,,,,,,,,,,,,,,,,,,,,,,,,426.9288293419995,427.4128351729996,427.4128351729996,427.4128351729996,427.4128351729996,427.4128351729996,427.4128351729996,427.4128351729996,427.4128351729996,427.4128351729996,l,1.2119353460038838,1,463,2,428.64739899899723,,,,,,,,,,,,,,,,,,,,,,,,,,,,,,,,,,,,,,,,,,,,,,,,,,,,,,,,,,,,,,,,,36290,2022-09-21_10h13.54.520,vts_reward_expectancy_OFFLINE,2022.2.4,59.912243422048526,
0,0,0,1,0,1,0,0,star ,circle,2,0,2,0,0,4,4,10,,,,,,,,,,,,,,,,,,,,,,,,,,,,,,,,,,,,,,,,430.1491393389988,430.63289880199954,430.63289880199954,430.63289880199954,430.63289880199954,430.63289880199954,430.63289880199954,430.63289880199954,430.63289880199954,430.63289880199954,a,4.496202256003016,1,464,2,435.1545385399986,,,,,,,,,,,,,,,,,,,,,,,,,,,,,,,,,,,,,,,,,,,,,,,,,,,,,,,,,,,,,,,,,36290,2022-09-21_10h13.54.520,vts_reward_expectancy_OFFLINE,2022.2.4,59.912243422048526,
0,0,1,0,1,0,0,0,hexagon,triangle,2,0,2,0,0,5,5,6,,,,,,,,,,,,,,,,,,,,,,,,,,,,,,,,,,,,,,,,436.65614569399986,437.1402135669996,437.1402135669996,437.1402135669996,437.1402135669996,437.1402135669996,437.1402135669996,437.1402135669996,437.1402135669996,437.1402135669996,l,0.934550013000262,10,474,2,438.0912372040002,,,,,,,,,,,,,,,,,,,,,,,,,,,,,,,,,,,,,,,,,,,,,,,,,,,,,,,,,,,,,,,,,36290,2022-09-21_10h13.54.520,vts_reward_expectancy_OFFLINE,2022.2.4,59.912243422048526,
0,1,0,0,0,0,1,0,circle,hexagon,2,0,2,0,0,6,6,4,,,,,,,,,,,,,,,,,,,,,,,,,,,,,,,,,,,,,,,,439.59295792299963,440.07665407999957,440.07665407999957,440.07665407999957,440.07665407999957,440.07665407999957,440.07665407999957,440.07665407999957,440.07665407999957,440.07665407999957,a,2.1330978440018953,1,475,2,442.2289500379993,,,,,,,,,,,,,,,,,,,,,,,,,,,,,,,,,,,,,,,,,,,,,,,,,,,,,,,,,,,,,,,,,36290,2022-09-21_10h13.54.520,vts_reward_expectancy_OFFLINE,2022.2.4,59.912243422048526,
1,0,0,0,0,0,0,1,triangle,star,2,0,2,0,0,7,7,2,,,,,,,,,,,,,,,,,,,,,,,,,,,,,,,,,,,,,,,,443.730745416,444.21465878899835,444.21465878899835,444.21465878899835,444.21465878899835,444.21465878899835,444.21465878899835,444.21465878899835,444.21465878899835,444.21465878899835,a,1.3460918440032401,10,485,2,445.5826462199984,,,,,,,,,,,,,,,,,,,,,,,,,,,,,,,,,,,,,,,,,,,,,,,,,,,,,,,,,,,,,,,,,36290,2022-09-21_10h13.54.520,vts_reward_expectancy_OFFLINE,2022.2.4,59.912243422048526,
0,1,0,0,1,0,0,0,circle,triangle,2,0,2,0,0,8,8,3,,,,,,,,,,,,,,,,,,,,,,,,,,,,,,,,,,,,,,,,447.08438754300005,447.56845443400016,447.56845443400016,447.56845443400016,447.56845443400016,447.56845443400016,447.56845443400016,447.56845443400016,447.56845443400016,447.56845443400016,l,0.5845689140005561,10,495,2,448.18564422299823,,,,,,,,,,,,,,,,,,,,,,,,,,,,,,,,,,,,,,,,,,,,,,,,,,,,,,,,,,,,,,,,,36290,2022-09-21_10h13.54.520,vts_reward_expectancy_OFFLINE,2022.2.4,59.912243422048526,
0,0,0,1,0,0,1,0,star,hexagon,2,0,2,0,0,9,9,11,,,,,,,,,,,,,,,,,,,,,,,,,,,,,,,,,,,,,,,,449.68745226600004,450.17123086399806,450.17123086399806,450.17123086399806,450.17123086399806,450.17123086399806,450.17123086399806,450.17123086399806,450.17123086399806,450.17123086399806,l,1.9263285060005728,10,505,2,452.1232950759986,,,,,,,,,,,,,,,,,,,,,,,,,,,,,,,,,,,,,,,,,,,,,,,,,,,,,,,,,,,,,,,,,36290,2022-09-21_10h13.54.520,vts_reward_expectancy_OFFLINE,2022.2.4,59.912243422048526,
0,1,0,0,0,0,0,1,circle,star,2,0,2,0,0,10,10,5,,,,,,,,,,,,,,,,,,,,,,,,,,,,,,,,,,,,,,,,453.62507887099855,454.10896713799957,454.10896713799957,454.10896713799957,454.10896713799957,454.10896713799957,454.10896713799957,454.10896713799957,454.10896713799957,454.10896713799957,a,0.8685619530006079,1,506,2,455.0098911049972,,,,,,,,,,,,,,,,,,,,,,,,,,,,,,,,,,,,,,,,,,,,,,,,,,,,,,,,,,,,,,,,,36290,2022-09-21_10h13.54.520,vts_reward_expectancy_OFFLINE,2022.2.4,59.912243422048526,
0,0,0,1,1,0,0,0,star,triangle,2,0,2,0,0,11,11,9,,,,,,,,,,,,,,,,,,,,,,,,,,,,,,,,,,,,,,,,456.51173524099795,456.99521182399985,456.99521182399985,456.99521182399985,456.99521182399985,456.99521182399985,456.99521182399985,456.99521182399985,456.99521182399985,456.99521182399985,l,0.861835855004756,1,507,2,457.8796379179985,,,,,,,,,,,,,,,,,,,,,,,,,,,,,,,,,,,,,,,,,,,,,,,,,,,,,,,,,,,,,,,,,36290,2022-09-21_10h13.54.520,vts_reward_expectancy_OFFLINE,2022.2.4,59.912243422048526,
1,0,0,0,0,1,0,0,triangle,circle,2,0,2,0,1,0,12,0,,,,,,,,,,,,,,,,,,,,,,,,,,,,,,,,,,,,,,,,459.3812097339978,459.8651990170001,459.8651990170001,459.8651990170001,459.8651990170001,459.8651990170001,459.8651990170001,459.8651990170001,459.8651990170001,459.8651990170001,a,0.5446478480043879,10,517,2,460.43239271699713,,,,,,,,,,,,,,,,,,,,,,,,,,,,,,,,,,,,,,,,,,,,,,,,,,,,,,,,,,,,,,,,,36290,2022-09-21_10h13.54.520,vts_reward_expectancy_OFFLINE,2022.2.4,59.912243422048526,
0,1,0,0,1,0,0,0,circle,triangle,2,0,2,0,1,1,13,3,,,,,,,,,,,,,,,,,,,,,,,,,,,,,,,,,,,,,,,,461.93390908999936,462.41802538699994,462.41802538699994,462.41802538699994,462.41802538699994,462.41802538699994,462.41802538699994,462.41802538699994,462.41802538699994,462.41802538699994,l,0.5750784530027886,10,527,2,463.0184920489992,,,,,,,,,,,,,,,,,,,,,,,,,,,,,,,,,,,,,,,,,,,,,,,,,,,,,,,,,,,,,,,,,36290,2022-09-21_10h13.54.520,vts_reward_expectancy_OFFLINE,2022.2.4,59.912243422048526,
0,1,0,0,0,0,1,0,circle,hexagon,2,0,2,0,1,2,14,4,,,,,,,,,,,,,,,,,,,,,,,,,,,,,,,,,,,,,,,,464.5201788630002,465.0042884739996,465.0042884739996,465.0042884739996,465.0042884739996,465.0042884739996,465.0042884739996,465.0042884739996,465.0042884739996,465.0042884739996,l,2.1176848410032107,10,537,2,467.1397823339976,468.64171029499994,,,,,,,,,,,,,,,,,,,,,,,,,,,,,,,,,,,,,,,,,,,,,,,,,,,,,,,,,,,,,,,,36290,2022-09-21_10h13.54.520,vts_reward_expectancy_OFFLINE,2022.2.4,59.912243422048526,
0,0,0,1,0,0,1,0,star,hexagon,2,0,2,0,1,3,15,11,,,,,,,,,,,,,,,,,,,,,,,,,,,,,,,,,,,,,,,,468.64171029499994,469.12545453799976,469.12545453799976,469.12545453799976,469.12545453799976,469.12545453799976,469.12545453799976,469.12545453799976,469.12545453799976,469.12545453799976,l,1.5081987960038532,10,547,2,470.66035319599905,,,,,,,,,,,,,,,,,,,,,,,,,,,,,,,,,,,,,,,,,,,,,,,,,,,,,,,,,,,,,,,,,36290,2022-09-21_10h13.54.520,vts_reward_expectancy_OFFLINE,2022.2.4,59.912243422048526,
0,0,0,1,0,1,0,0,star ,circle,2,0,2,0,1,4,16,10,,,,,,,,,,,,,,,,,,,,,,,,,,,,,,,,,,,,,,,,472.16231399000026,472.64599838199865,472.64599838199865,472.64599838199865,472.64599838199865,472.64599838199865,472.64599838199865,472.64599838199865,472.64599838199865,472.64599838199865,l,2.069258373001503,1,548,2,474.7316955219976,,,,,,,,,,,,,,,,,,,,,,,,,,,,,,,,,,,,,,,,,,,,,,,,,,,,,,,,,,,,,,,,,36290,2022-09-21_10h13.54.520,vts_reward_expectancy_OFFLINE,2022.2.4,59.912243422048526,
0,0,1,0,0,1,0,0,hexagon,circle,2,0,2,0,1,5,17,7,,,,,,,,,,,,,,,,,,,,,,,,,,,,,,,,,,,,,,,,476.23331552200034,476.7172177190005,476.7172177190005,476.7172177190005,476.7172177190005,476.7172177190005,476.7172177190005,476.7172177190005,476.7172177190005,476.7172177190005,l,2.2367822640044324,1,549,2,478.98624883400043,,,,,,,,,,,,,,,,,,,,,,,,,,,,,,,,,,,,,,,,,,,,,,,,,,,,,,,,,,,,,,,,,36290,2022-09-21_10h13.54.520,vts_reward_expectancy_OFFLINE,2022.2.4,59.912243422048526,
0,0,0,1,1,0,0,0,star,triangle,2,0,2,0,1,6,18,9,,,,,,,,,,,,,,,,,,,,,,,,,,,,,,,,,,,,,,,,480.4879484949997,480.97173571500025,480.97173571500025,480.97173571500025,480.97173571500025,480.97173571500025,480.97173571500025,480.97173571500025,480.97173571500025,480.97173571500025,l,0.6371050780035148,1,550,2,481.63935718799985,,,,,,,,,,,,,,,,,,,,,,,,,,,,,,,,,,,,,,,,,,,,,,,,,,,,,,,,,,,,,,,,,36290,2022-09-21_10h13.54.520,vts_reward_expectancy_OFFLINE,2022.2.4,59.912243422048526,
1,0,0,0,0,0,1,0,triangle,hexagon,2,0,2,0,1,7,19,1,,,,,,,,,,,,,,,,,,,,,,,,,,,,,,,,,,,,,,,,483.1411763279975,483.6248616689991,483.6248616689991,483.6248616689991,483.6248616689991,483.6248616689991,483.6248616689991,483.6248616689991,483.6248616689991,483.6248616689991,a,0.6338908070028992,10,560,2,484.2753770269992,485.7769873929974,,,,,,,,,,,,,,,,,,,,,,,,,,,,,,,,,,,,,,,,,,,,,,,,,,,,,,,,,,,,,,,,36290,2022-09-21_10h13.54.520,vts_reward_expectancy_OFFLINE,2022.2.4,59.912243422048526,
0,1,0,0,0,0,0,1,circle,star,2,0,2,0,1,8,20,5,,,,,,,,,,,,,,,,,,,,,,,,,,,,,,,,,,,,,,,,485.7769873929974,486.26097412299714,486.26097412299714,486.26097412299714,486.26097412299714,486.26097412299714,486.26097412299714,486.26097412299714,486.26097412299714,486.26097412299714,a,1.020552050002152,1,561,2,487.31227713000044,,,,,,,,,,,,,,,,,,,,,,,,,,,,,,,,,,,,,,,,,,,,,,,,,,,,,,,,,,,,,,,,,36290,2022-09-21_10h13.54.520,vts_reward_expectancy_OFFLINE,2022.2.4,59.912243422048526,
0,0,1,0,0,0,0,1,hexagon,star,2,0,2,0,1,9,21,8,,,,,,,,,,,,,,,,,,,,,,,,,,,,,,,,,,,,,,,,488.8137289240003,489.2977000899991,489.2977000899991,489.2977000899991,489.2977000899991,489.2977000899991,489.2977000899991,489.2977000899991,489.2977000899991,489.2977000899991,a,0.7852574839998852,1,562,2,490.115369621999,,,,,,,,,,,,,,,,,,,,,,,,,,,,,,,,,,,,,,,,,,,,,,,,,,,,,,,,,,,,,,,,,36290,2022-09-21_10h13.54.520,vts_reward_expectancy_OFFLINE,2022.2.4,59.912243422048526,
0,0,1,0,1,0,0,0,hexagon,triangle,2,0,2,0,1,10,22,6,,,,,,,,,,,,,,,,,,,,,,,,,,,,,,,,,,,,,,,,491.6171147399982,492.1009948739993,492.1009948739993,492.1009948739993,492.1009948739993,492.1009948739993,492.1009948739993,492.1009948739993,492.1009948739993,492.1009948739993,l,0.7811602120018506,10,572,2,492.90156730299714,,,,,,,,,,,,,,,,,,,,,,,,,,,,,,,,,,,,,,,,,,,,,,,,,,,,,,,,,,,,,,,,,36290,2022-09-21_10h13.54.520,vts_reward_expectancy_OFFLINE,2022.2.4,59.912243422048526,
1,0,0,0,0,0,0,1,triangle,star,2,0,2,0,1,11,23,2,,,,,,,,,,,,,,,,,,,,,,,,,,,,,,,,,,,,,,,,494.40331809299823,494.88726761499856,494.88726761499856,494.88726761499856,494.88726761499856,494.88726761499856,494.88726761499856,494.88726761499856,494.88726761499856,494.88726761499856,a,1.6826979430043139,10,582,2,496.58902764199956,,,,,,,,,,,,,,,,,,,,,,,,,,,,,,,,,,,,,,,,,,,,,,,,,,,,,,,,,,,,,,,,,36290,2022-09-21_10h13.54.520,vts_reward_expectancy_OFFLINE,2022.2.4,59.912243422048526,
1,0,0,0,0,1,0,0,triangle,circle,2,0,2,0,2,0,24,0,,,,,,,,,,,,,,,,,,,,,,,,,,,,,,,,,,,,,,,,498.0908174529977,498.57443534199774,498.57443534199774,498.57443534199774,498.57443534199774,498.57443534199774,498.57443534199774,498.57443534199774,498.57443534199774,498.57443534199774,a,1.075083623003593,10,592,2,499.67580792599983,,,,,,,,,,,,,,,,,,,,,,,,,,,,,,,,,,,,,,,,,,,,,,,,,,,,,,,,,,,,,,,,,36290,2022-09-21_10h13.54.520,vts_reward_expectancy_OFFLINE,2022.2.4,59.912243422048526,
0,0,1,0,0,1,0,0,hexagon,circle,2,0,2,0,2,1,25,7,,,,,,,,,,,,,,,,,,,,,,,,,,,,,,,,,,,,,,,,501.1774276629985,501.6613352129971,501.6613352129971,501.6613352129971,501.6613352129971,501.6613352129971,501.6613352129971,501.6613352129971,501.6613352129971,501.6613352129971,a,1.1638048580025497,10,602,2,502.84595733899914,,,,,,,,,,,,,,,,,,,,,,,,,,,,,,,,,,,,,,,,,,,,,,,,,,,,,,,,,,,,,,,,,36290,2022-09-21_10h13.54.520,vts_reward_expectancy_OFFLINE,2022.2.4,59.912243422048526,
0,1,0,0,1,0,0,0,circle,triangle,2,0,2,0,2,2,26,3,,,,,,,,,,,,,,,,,,,,,,,,,,,,,,,,,,,,,,,,504.34754966499895,504.8315438969985,504.8315438969985,504.8315438969985,504.8315438969985,504.8315438969985,504.8315438969985,504.8315438969985,504.8315438969985,504.8315438969985,l,0.5535902440024074,10,612,2,505.4154347479998,,,,,,,,,,,,,,,,,,,,,,,,,,,,,,,,,,,,,,,,,,,,,,,,,,,,,,,,,,,,,,,,,36290,2022-09-21_10h13.54.520,vts_reward_expectancy_OFFLINE,2022.2.4,59.912243422048526,
0,0,1,0,1,0,0,0,hexagon,triangle,2,0,2,0,2,3,27,6,,,,,,,,,,,,,,,,,,,,,,,,,,,,,,,,,,,,,,,,506.9173730679977,507.4011117909977,507.4011117909977,507.4011117909977,507.4011117909977,507.4011117909977,507.4011117909977,507.4011117909977,507.4011117909977,507.4011117909977,l,1.232683538004494,10,622,2,508.6524008999986,510.1538728259984,,,,,,,,,,,,,,,,,,,,,,,,,,,,,,,,,,,,,,,,,,,,,,,,,,,,,,,,,,,,,,,,36290,2022-09-21_10h13.54.520,vts_reward_expectancy_OFFLINE,2022.2.4,59.912243422048526,
1,0,0,0,0,0,1,0,triangle,hexagon,2,0,2,0,2,4,28,1,,,,,,,,,,,,,,,,,,,,,,,,,,,,,,,,,,,,,,,,510.1538728259984,510.63821151999946,510.63821151999946,510.63821151999946,510.63821151999946,510.63821151999946,510.63821151999946,510.63821151999946,510.63821151999946,510.63821151999946,a,1.6681578290008474,10,632,2,512.3230125659975,,,,,,,,,,,,,,,,,,,,,,,,,,,,,,,,,,,,,,,,,,,,,,,,,,,,,,,,,,,,,,,,,36290,2022-09-21_10h13.54.520,vts_reward_expectancy_OFFLINE,2022.2.4,59.912243422048526,
0,1,0,0,0,0,1,0,circle,hexagon,2,0,2,0,2,5,29,4,,,,,,,,,,,,,,,,,,,,,,,,,,,,,,,,,,,,,,,,513.8247650049998,514.3086709809977,514.3086709809977,514.3086709809977,514.3086709809977,514.3086709809977,514.3086709809977,514.3086709809977,514.3086709809977,514.3086709809977,l,3.0846337720031443,10,642,2,517.4121350360001,518.913795229997,,,,,,,,,,,,,,,,,,,,,,,,,,,,,,,,,,,,,,,,,,,,,,,,,,,,,,,,,,,,,,,,36290,2022-09-21_10h13.54.520,vts_reward_expectancy_OFFLINE,2022.2.4,59.912243422048526,
0,0,0,1,0,1,0,0,star ,circle,2,0,2,0,2,6,30,10,,,,,,,,,,,,,,,,,,,,,,,,,,,,,,,,,,,,,,,,518.913795229997,519.3976920299974,519.3976920299974,519.3976920299974,519.3976920299974,519.3976920299974,519.3976920299974,519.3976920299974,519.3976920299974,519.3976920299974,a,2.570790677000332,10,652,2,522.0006606329989,,,,,,,,,,,,,,,,,,,,,,,,,,,,,,,,,,,,,,,,,,,,,,,,,,,,,,,,,,,,,,,,,36290,2022-09-21_10h13.54.520,vts_reward_expectancy_OFFLINE,2022.2.4,59.912243422048526,
0,0,1,0,0,0,0,1,hexagon,star,2,0,2,0,2,7,31,8,,,,,,,,,,,,,,,,,,,,,,,,,,,,,,,,,,,,,,,,523.5019655920005,523.9859563939972,523.9859563939972,523.9859563939972,523.9859563939972,523.9859563939972,523.9859563939972,523.9859563939972,523.9859563939972,523.9859563939972,a,2.6392910670037963,1,653,2,526.6553746110003,,,,,,,,,,,,,,,,,,,,,,,,,,,,,,,,,,,,,,,,,,,,,,,,,,,,,,,,,,,,,,,,,36290,2022-09-21_10h13.54.520,vts_reward_expectancy_OFFLINE,2022.2.4,59.912243422048526,
0,0,0,1,0,0,1,0,star,hexagon,2,0,2,0,2,8,32,11,,,,,,,,,,,,,,,,,,,,,,,,,,,,,,,,,,,,,,,,528.1571958919994,528.641415586997,528.641415586997,528.641415586997,528.641415586997,528.641415586997,528.641415586997,528.641415586997,528.641415586997,528.641415586997,l,2.240849188005086,10,663,2,530.9100400770003,,,,,,,,,,,,,,,,,,,,,,,,,,,,,,,,,,,,,,,,,,,,,,,,,,,,,,,,,,,,,,,,,36290,2022-09-21_10h13.54.520,vts_reward_expectancy_OFFLINE,2022.2.4,59.912243422048526,
0,0,0,1,1,0,0,0,star,triangle,2,0,2,0,2,9,33,9,,,,,,,,,,,,,,,,,,,,,,,,,,,,,,,,,,,,,,,,532.4118619399997,532.8956309959976,532.8956309959976,532.8956309959976,532.8956309959976,532.8956309959976,532.8956309959976,532.8956309959976,532.8956309959976,532.8956309959976,l,1.034835958005715,10,673,2,533.9470210099971,535.4485168379979,,,,,,,,,,,,,,,,,,,,,,,,,,,,,,,,,,,,,,,,,,,,,,,,,,,,,,,,,,,,,,,,36290,2022-09-21_10h13.54.520,vts_reward_expectancy_OFFLINE,2022.2.4,59.912243422048526,
0,1,0,0,0,0,0,1,circle,star,2,0,2,0,2,10,34,5,,,,,,,,,,,,,,,,,,,,,,,,,,,,,,,,,,,,,,,,535.4485168379979,535.9322221559996,535.9322221559996,535.9322221559996,535.9322221559996,535.9322221559996,535.9322221559996,535.9322221559996,535.9322221559996,535.9322221559996,l,2.220688310000696,1,674,2,538.1846781780005,,,,,,,,,,,,,,,,,,,,,,,,,,,,,,,,,,,,,,,,,,,,,,,,,,,,,,,,,,,,,,,,,36290,2022-09-21_10h13.54.520,vts_reward_expectancy_OFFLINE,2022.2.4,59.912243422048526,
1,0,0,0,0,0,0,1,triangle,star,2,0,2,0,2,11,35,2,,,,,,,,,,,,,,,,,,,,,,,,,,,,,,,,,,,,,,,,539.6865633319976,540.1704208999981,540.1704208999981,540.1704208999981,540.1704208999981,540.1704208999981,540.1704208999981,540.1704208999981,540.1704208999981,540.1704208999981,a,0.5908564900018973,10,684,2,540.7876026390004,,,,,,,,,,,,,,,,,,,,,,,,,,,,,,,,,,,,,,,,,,,,,,,,,,,,,,,,,,,,,,,,,36290,2022-09-21_10h13.54.520,vts_reward_expectancy_OFFLINE,2022.2.4,59.912243422048526,
,,,,,,,,,,,,,,,,,,0,0,0,0,0,0,0,0,,,,,,,,,,,,,,,,,,,,,,,,,,,,,,,,,,,,,,,,,,,,,,,,,146,H,star,0.0022136360021249857,594.1975734419975,594.6972149289977,594.6972149289977,596.1990239900006,596.1990239900006,596.1990239900006,1,0,d,2.610338144000707,0,598.8351138049984,,,,,,,,,,,,,,,,,,,,,,,,,,,,,,,,,,,,,,,,,,,,,,,,36290,2022-09-21_10h13.54.520,vts_reward_expectancy_OFFLINE,2022.2.4,59.912243422048526,
,,,,,,,,,,,,,,,,,,0,0,0,0,1,0,1,0,,,,,,,,,,,,,,,,,,,,,,,,,,,,,,,,,,,,,,,,,,,,,,,,,125,W,circle,0.0009297880023950711,600.8166985209973,601.3211630469996,601.3211630469996,602.8228725169974,602.8228725169974,602.8228725169974,1,0,d,0.569826130005822,0,603.4236179539985,,,,,,,,,,,,,,,,,,,,,,,,,,,,,,,,,,,,,,,,,,,,,,,,36290,2022-09-21_10h13.54.520,vts_reward_expectancy_OFFLINE,2022.2.4,59.912243422048526,
,,,,,,,,,,,,,,,,,,0,0,0,0,2,0,2,0,,,,,,,,,,,,,,,,,,,,,,,,,,,,,,,,,,,,,,,,,,,,,,,,,139,D,hexagon,0.0012825839985453058,605.4048020839982,605.9096158399989,605.9096158399989,607.4111182759989,607.4111182759989,607.4111182759989,1,0,d,0.5896535740030231,0,608.0286489089995,,,,,,,,,,,,,,,,,,,,,,,,,,,,,,,,,,,,,,,,,,,,,,,,36290,2022-09-21_10h13.54.520,vts_reward_expectancy_OFFLINE,2022.2.4,59.912243422048526,
,,,,,,,,,,,,,,,,,,0,0,0,0,3,0,3,0,,,,,,,,,,,,,,,,,,,,,,,,,,,,,,,,,,,,,,,,,,,,,,,,,174,Y,triangle,0.0007878169999457896,610.0096590159992,610.514750301998,610.514750301998,612.0163917499995,612.0163917499995,612.0163917499995,1,0,f,0.7218148430038127,0,612.7669625689996,,,,,,,,,,,,,,,,,,,,,,,,,,,,,,,,,,,,,,,,,,,,,,,,36290,2022-09-21_10h13.54.520,vts_reward_expectancy_OFFLINE,2022.2.4,59.912243422048526,
,,,,,,,,,,,,,,,,,,0,0,0,0,4,0,4,0,,,,,,,,,,,,,,,,,,,,,,,,,,,,,,,,,,,,,,,,,,,,,,,,,132,B,circle,0.0012519590018200688,614.7491204709986,615.253157911,615.253157911,616.7547662769975,616.7547662769975,616.7547662769975,1,0,d,0.8304988010022498,0,617.6058536950004,,,,,,,,,,,,,,,,,,,,,,,,,,,,,,,,,,,,,,,,,,,,,,,,36290,2022-09-21_10h13.54.520,vts_reward_expectancy_OFFLINE,2022.2.4,59.912243422048526,
,,,,,,,,,,,,,,,,,,0,0,0,0,5,0,5,0,,,,,,,,,,,,,,,,,,,,,,,,,,,,,,,,,,,,,,,,,,,,,,,,,167,U,star,0.001075790001777932,619.5870711949974,620.0923855839974,620.0923855839974,621.5936697389989,621.5936697389989,621.5936697389989,1,0,f,0.6238025670027127,0,622.2442263729972,,,,,,,,,,,,,,,,,,,,,,,,,,,,,,,,,,,,,,,,,,,,,,,,36290,2022-09-21_10h13.54.520,vts_reward_expectancy_OFFLINE,2022.2.4,59.912243422048526,
,,,,,,,,,,,,,,,,,,0,0,0,0,6,0,6,0,,,,,,,,,,,,,,,,,,,,,,,,,,,,,,,,,,,,,,,,,,,,,,,,,160,F,hexagon,0.0011214639998797793,624.2287683059985,624.7303629649978,624.7303629649978,626.231971109999,626.231971109999,626.231971109999,1,0,f,0.6251076490007108,0,626.8827527089998,,,,,,,,,,,,,,,,,,,,,,,,,,,,,,,,,,,,,,,,,,,,,,,,36290,2022-09-21_10h13.54.520,vts_reward_expectancy_OFFLINE,2022.2.4,59.912243422048526,
,,,,,,,,,,,,,,,,,,0,0,0,0,7,0,7,0,,,,,,,,,,,,,,,,,,,,,,,,,,,,,,,,,,,,,,,,,,,,,,,,,181,S,triangle,0.0009345409998786636,628.8646506810001,629.3687872619994,629.3687872619994,630.8705601740003,630.8705601740003,630.8705601740003,1,0,f,0.5221126080032263,0,631.4213640540002,,,,,,,,,,,,,,,,,,,,,,,,,,,,,,,,,,,,,,,,,,,,,,,,36290,2022-09-21_10h13.54.520,vts_reward_expectancy_OFFLINE,2022.2.4,59.912243422048526,
,,,,,,,,,,,,,,,,,,0,0,0,0,8,0,8,0,,,,,,,,,,,,,,,,,,,,,,,,,,,,,,,,,,,,,,,,,,,,,,,,,146,H,triangle,0.0012186759995529428,633.4034263329995,633.9070846299983,633.9070846299983,635.4088915739994,635.4088915739994,635.4088915739994,1,0,d,0.9917831270031456,0,636.4266155549994,,,,,,,,,,,,,,,,,,,,,,,,,,,,,,,,,,,,,,,,,,,,,,,,36290,2022-09-21_10h13.54.520,vts_reward_expectancy_OFFLINE,2022.2.4,59.912243422048526,
,,,,,,,,,,,,,,,,,,0,0,0,0,9,0,9,0,,,,,,,,,,,,,,,,,,,,,,,,,,,,,,,,,,,,,,,,,,,,,,,,,125,W,hexagon,0.0007555140000476968,638.4087933439987,638.9126709890006,638.9126709890006,640.4141847049978,640.4141847049978,640.4141847049978,1,0,d,0.5628130850018351,0,640.9986018489981,,,,,,,,,,,,,,,,,,,,,,,,,,,,,,,,,,,,,,,,,,,,,,,,36290,2022-09-21_10h13.54.520,vts_reward_expectancy_OFFLINE,2022.2.4,59.912243422048526,
,,,,,,,,,,,,,,,,,,,,,,,,,,0,0,0,0,0,0,0,0,,,,,,,,,,,,,,,,,,,,,,,,,,,,,,,,,,,,,,,,,174,W,circle,0.0021371840011852328,683.5755951840001,684.0791055289992,,,,,1,0,,,1,687.0327829259986,684.0791055289992,685.5809267939985,685.5809267939985,685.5809267939985,k,1.428257632000168,,,,,,,,,,,,,,,,,,,,,,,,,,,,,,,,,,,,,,,,,,36290,2022-09-21_10h13.54.520,vts_reward_expectancy_OFFLINE,2022.2.4,59.912243422048526,
,,,,,,,,,,,,,,,,,,,,,,,,,,0,0,0,0,1,0,1,0,,,,,,,,,,,,,,,,,,,,,,,,,,,,,,,,,,,,,,,,,139,H,hexagon,0.001028397000482073,689.014543964,689.5183290309978,,,,,0,0,,,1,691.7376583980003,689.5183290309978,691.0201975359996,691.0201975359996,691.0201975359996,k,0.692635056002473,,,,,,,,,,,,,,,,,,,,,,,,,,,,,,,,,,,,,,,,,,36290,2022-09-21_10h13.54.520,vts_reward_expectancy_OFFLINE,2022.2.4,59.912243422048526,
,,,,,,,,,,,,,,,,,,,,,,,,,,0,0,0,0,2,0,2,0,,,,,,,,,,,,,,,,,,,,,,,,,,,,,,,,,,,,,,,,,160,S,triangle,0.0008884030030458234,693.7196351509992,694.2235085869979,,,,,1,1,,,1,696.8433935369976,694.2235085869979,695.7252063619999,695.7252063619999,695.7252063619999,k,1.0918588470012764,,,,,,,,,,,,,,,,,,,,,,,,,,,,,,,,,,,,,,,,,,36290,2022-09-21_10h13.54.520,vts_reward_expectancy_OFFLINE,2022.2.4,59.912243422048526,
,,,,,,,,,,,,,,,,,,,,,,,,,,0,0,0,0,3,0,3,0,,,,,,,,,,,,,,,,,,,,,,,,,,,,,,,,,,,,,,,,,125,Y,star,0.0008381600018765312,698.8251926249977,699.3293006040003,,,,,1,0,,,1,701.665173764999,699.3293006040003,700.8309078919992,700.8309078919992,700.8309078919992,k,0.8016715280027711,,,,,,,,,,,,,,,,,,,,,,,,,,,,,,,,,,,,,,,,,,36290,2022-09-21_10h13.54.520,vts_reward_expectancy_OFFLINE,2022.2.4,59.912243422048526,
,,,,,,,,,,,,,,,,,,,,,,,,,,0,0,0,0,4,0,4,0,,,,,,,,,,,,,,,,,,,,,,,,,,,,,,,,,,,,,,,,,132,D,star,0.0008944040018832311,703.6472701959974,704.1512451399976,,,,,1,0,,,1,706.4537981489993,704.1512451399976,705.6528450119986,705.6528450119986,705.6528450119986,j,0.7809616470040055,,,,,,,,,,,,,,,,,,,,,,,,,,,,,,,,,,,,,,,,,,36290,2022-09-21_10h13.54.520,vts_reward_expectancy_OFFLINE,2022.2.4,59.912243422048526,
,,,,,,,,,,,,,,,,,,,,,,,,,,0,0,0,0,5,0,5,0,,,,,,,,,,,,,,,,,,,,,,,,,,,,,,,,,,,,,,,,,146,U,triangle,0.001089222998416517,708.4360565319985,708.9398430109977,,,,,1,0,,,1,711.1919437039978,708.9398430109977,710.4413889009993,710.4413889009993,710.4413889009993,k,0.7193085850049101,,,,,,,,,,,,,,,,,,,,,,,,,,,,,,,,,,,,,,,,,,36290,2022-09-21_10h13.54.520,vts_reward_expectancy_OFFLINE,2022.2.4,59.912243422048526,
,,,,,,,,,,,,,,,,,,,,,,,,,,0,0,0,0,6,0,6,0,,,,,,,,,,,,,,,,,,,,,,,,,,,,,,,,,,,,,,,,,181,F,circle,0.0014794219969189726,713.1741744039973,713.680469466999,,,,,1,0,,,1,716.2147896919996,713.680469466999,715.1803362949977,715.1803362949977,715.1803362949977,j,1.012471648002247,,,,,,,,,,,,,,,,,,,,,,,,,,,,,,,,,,,,,,,,,,36290,2022-09-21_10h13.54.520,vts_reward_expectancy_OFFLINE,2022.2.4,59.912243422048526,
,,,,,,,,,,,,,,,,,,,,,,,,,,0,0,0,0,7,0,7,0,,,,,,,,,,,,,,,,,,,,,,,,,,,,,,,,,,,,,,,,,167,B,hexagon,0.001277915001992369,718.196982964997,718.700697379998,,,,,1,0,,,1,720.9364443829982,718.700697379998,720.20238952,720.20238952,720.20238952,j,0.7021047950038337,,,,,,,,,,,,,,,,,,,,,,,,,,,,,,,,,,,,,,,,,,36290,2022-09-21_10h13.54.520,vts_reward_expectancy_OFFLINE,2022.2.4,59.912243422048526,
,,,,,,,,,,,,,,,,,,,,,,,,,,0,0,0,0,8,0,8,0,,,,,,,,,,,,,,,,,,,,,,,,,,,,,,,,,,,,,,,,,174,W,triangle,0.001284827998460969,722.9186468199987,723.4226919020002,,,,,1,0,,,1,725.6750828369986,723.4226919020002,724.9242831869997,724.9242831869997,724.9242831869997,k,0.7342511310016562,,,,,,,,,,,,,,,,,,,,,,,,,,,,,,,,,,,,,,,,,,36290,2022-09-21_10h13.54.520,vts_reward_expectancy_OFFLINE,2022.2.4,59.912243422048526,
,,,,,,,,,,,,,,,,,,,,,,,,,,0,0,0,0,9,0,9,0,,,,,,,,,,,,,,,,,,,,,,,,,,,,,,,,,,,,,,,,,139,H,star,0.0005123870032548439,727.6573091369974,728.1610130739973,,,,,1,0,,,1,731.7816678849995,728.1610130739973,729.6627246930002,729.6627246930002,729.6627246930002,j,2.097741400000814,,,,,,,,,,,,,,,,,,,,,,,,,,,,,,,,,,,,,,,,,,36290,2022-09-21_10h13.54.520,vts_reward_expectancy_OFFLINE,2022.2.4,59.912243422048526,
,,,,,,,,,,,,,,,,,,,,,,,,,,,,,,,,,,0,0,0,0,0,0,0,0,,,,,,,,,,,,,,,,,,,,,,,,,,,,0,684,,,,181,H,hexagon,0.0021956460004730616,777.4960393299989,777.9996177969988,,,,,0,0,,,2,,,,,,,,777.9996177969988,777.9996177969988,777.9996177969988,777.9996177969988,779.5011205640003,779.5011205640003,779.5011205640003,779.5011205640003,779.5011205640003,779.5011205640003,779.5011205640003,779.5011205640003,-1,letter,NA,k,1.652848386002006,vtsPrac,781.1865263449981,,,,,,,,,,,,,,,,,,,,,,,36290,2022-09-21_10h13.54.520,vts_reward_expectancy_OFFLINE,2022.2.4,59.912243422048526,
,,,,,,,,,,,,,,,,,,,,,,,,,,,,,,,,,,0,0,0,0,1,0,1,0,,,,,,,,,,,,,,,,,,,,,,,,,,,,0,684,,,,167,U,circle,0.000818419001006987,783.1686193530004,783.6724144159998,,,,,1,1,,,2,,,,,,,,783.6724144159998,783.6724144159998,783.6724144159998,783.6724144159998,785.174050030997,785.174050030997,785.174050030997,785.174050030997,785.174050030997,785.174050030997,785.174050030997,785.174050030997,switch,number,numSwt,f,2.7079061110016482,vtsPrac,787.9104457379981,,,,,,,,,,,,,,,,,,,,,,,36290,2022-09-21_10h13.54.520,vts_reward_expectancy_OFFLINE,2022.2.4,59.912243422048526,
,,,,,,,,,,,,,,,,,,,,,,,,,,,,,,,,,,0,0,0,0,2,0,2,0,,,,,,,,,,,,,,,,,,,,,,,,,,,,0,684,,,,174,S,star,0.001100429999496555,789.8928761520001,790.3964616519988,,,,,1,0,,,2,,,,,,,,790.3964616519988,790.3964616519988,790.3964616519988,790.3964616519988,791.898190631,791.898190631,791.898190631,791.898190631,791.898190631,791.898190631,791.898190631,791.898190631,switch,letter,lettSwt,k,0.7436144340026658,vtsPrac,792.665432562997,,,,,,,,,,,,,,,,,,,,,,,36290,2022-09-21_10h13.54.520,vts_reward_expectancy_OFFLINE,2022.2.4,59.912243422048526,
,,,,,,,,,,,,,,,,,,,,,,,,,,,,,,,,,,0,0,0,0,3,0,3,0,,,,,,,,,,,,,,,,,,,,,,,,,,,,0,684,,,,132,B,hexagon,0.0011423320029280148,794.6475020759972,795.1516337590001,,,,,1,0,,,2,,,,,,,,795.1516337590001,795.1516337590001,795.1516337590001,795.1516337590001,796.6533511060006,796.6533511060006,796.6533511060006,796.6533511060006,796.6533511060006,796.6533511060006,796.6533511060006,796.6533511060006,switch,number,numSwt,d,1.0045170380035415,vtsPrac,797.6876570789973,,,,,,,,,,,,,,,,,,,,,,,36290,2022-09-21_10h13.54.520,vts_reward_expectancy_OFFLINE,2022.2.4,59.912243422048526,
,,,,,,,,,,,,,,,,,,,,,,,,,,,,,,,,,,0,0,0,0,4,0,4,0,,,,,,,,,,,,,,,,,,,,,,,,,,,,0,684,,,,181,H,triangle,0.001091235000785673,799.6697406299972,800.173858504997,,,,,1,0,,,2,,,,,,,,800.173858504997,800.173858504997,800.173858504997,800.173858504997,801.6754927689981,801.6754927689981,801.6754927689981,801.6754927689981,801.6754927689981,801.6754927689981,801.6754927689981,801.6754927689981,repeat,number,numRpt,f,0.7816269020040636,vtsPrac,802.4762632649981,,,,,,,,,,,,,,,,,,,,,,,36290,2022-09-21_10h13.54.520,vts_reward_expectancy_OFFLINE,2022.2.4,59.912243422048526,
,,,,,,,,,,,,,,,,,,,,,,,,,,,,,,,,,,0,0,0,0,5,0,5,0,,,,,,,,,,,,,,,,,,,,,,,,,,,,0,684,,,,167,U,hexagon,0.000543811998795718,804.4583606619999,804.9625011719982,,,,,1,0,,,2,,,,,,,,804.9625011719982,804.9625011719982,804.9625011719982,804.9625011719982,806.464139017,806.464139017,806.464139017,806.464139017,806.464139017,806.464139017,806.464139017,806.464139017,repeat,number,numRpt,f,1.257466535000276,vtsPrac,807.7488782599976,,,,,,,,,,,,,,,,,,,,,,,36290,2022-09-21_10h13.54.520,vts_reward_expectancy_OFFLINE,2022.2.4,59.912243422048526,
,,,,,,,,,,,,,,,,,,,,,,,,,,,,,,,,,,0,0,0,0,6,0,6,0,,,,,,,,,,,,,,,,,,,,,,,,,,,,0,684,,,,174,S,hexagon,0.0009791470001800917,809.7309345539979,810.2349986929985,,,,,1,0,,,2,,,,,,,,810.2349986929985,810.2349986929985,810.2349986929985,810.2349986929985,811.7366789519983,811.7366789519983,811.7366789519983,811.7366789519983,811.7366789519983,811.7366789519983,811.7366789519983,811.7366789519983,switch,letter,lettSwt,k,1.0810048730018025,vtsPrac,812.8381954139986,,,,,,,,,,,,,,,,,,,,,,,36290,2022-09-21_10h13.54.520,vts_reward_expectancy_OFFLINE,2022.2.4,59.912243422048526,
,,,,,,,,,,,,,,,,,,,,,,,,,,,,,,,,,,0,0,0,0,7,0,7,0,,,,,,,,,,,,,,,,,,,,,,,,,,,,0,684,,,,132,B,star,0.0010228360006294679,814.8199324439993,815.3241362109984,,,,,1,0,,,2,,,,,,,,815.3241362109984,815.3241362109984,815.3241362109984,815.3241362109984,816.8255118719972,816.8255118719972,816.8255118719972,816.8255118719972,816.8255118719972,816.8255118719972,816.8255118719972,816.8255118719972,repeat,letter,lettRpt,j,1.2958664110046811,vtsPrac,818.143601380998,,,,,,,,,,,,,,,,,,,,,,,36290,2022-09-21_10h13.54.520,vts_reward_expectancy_OFFLINE,2022.2.4,59.912243422048526,
,,,,,,,,,,,,,,,,,,,,,,,,,,,,,,,,,,0,0,0,0,8,0,8,0,,,,,,,,,,,,,,,,,,,,,,,,,,,,0,684,,,,125,D,circle,0.00110923999818624,820.1256645499998,820.6296873069987,,,,,1,0,,,2,,,,,,,,820.6296873069987,820.6296873069987,820.6296873069987,820.6296873069987,822.1315722139989,822.1315722139989,822.1315722139989,822.1315722139989,822.1315722139989,822.1315722139989,822.1315722139989,822.1315722139989,repeat,letter,lettRpt,j,1.2775011880039528,vtsPrac,823.4329136699998,,,,,,,,,,,,,,,,,,,,,,,36290,2022-09-21_10h13.54.520,vts_reward_expectancy_OFFLINE,2022.2.4,59.912243422048526,
,,,,,,,,,,,,,,,,,,,,,,,,,,,,,,,,,,0,0,0,0,9,0,9,0,,,,,,,,,,,,,,,,,,,,,,,,,,,,0,684,,,,132,H,triangle,0.0008951179988798685,825.4140705350001,825.9189189319986,,,,,1,0,,,2,,,,,,,,825.9189189319986,825.9189189319986,825.9189189319986,825.9189189319986,827.420730324,827.420730324,827.420730324,827.420730324,827.420730324,827.420730324,827.420730324,827.420730324,switch,number,numSwt,d,1.285586661004345,vtsPrac,828.7387303100004,,,,,,,,,,,,,,,,,,,,,,,36290,2022-09-21_10h13.54.520,vts_reward_expectancy_OFFLINE,2022.2.4,59.912243422048526,
,,,,,,,,,,,,,,,,,,,,,,,,,,,,,,,,,,0,0,0,0,10,0,10,0,,,,,,,,,,,,,,,,,,,,,,,,,,,,0,684,,,,160,S,star,0.0009459459979552776,830.7208082629986,831.2246734990003,,,,,1,0,,,2,,,,,,,,831.2246734990003,831.2246734990003,831.2246734990003,831.2246734990003,832.7265732359992,832.7265732359992,832.7265732359992,832.7265732359992,832.7265732359992,832.7265732359992,832.7265732359992,832.7265732359992,switch,letter,lettSwt,k,1.0584630430021207,vtsPrac,833.8110557750006,,,,,,,,,,,,,,,,,,,,,,,36290,2022-09-21_10h13.54.520,vts_reward_expectancy_OFFLINE,2022.2.4,59.912243422048526,
,,,,,,,,,,,,,,,,,,,,,,,,,,,,,,,,,,0,0,0,0,11,0,11,0,,,,,,,,,,,,,,,,,,,,,,,,,,,,0,684,,,,139,B,hexagon,0.00088644000061322,835.7927161309999,836.2971163719994,,,,,1,0,,,2,,,,,,,,836.2971163719994,836.2971163719994,836.2971163719994,836.2971163719994,837.7985910299976,837.7985910299976,837.7985910299976,837.7985910299976,837.7985910299976,837.7985910299976,837.7985910299976,837.7985910299976,repeat,letter,lettRpt,j,1.5240062030025001,vtsPrac,839.350338627999,,,,,,,,,,,,,,,,,,,,,,,36290,2022-09-21_10h13.54.520,vts_reward_expectancy_OFFLINE,2022.2.4,59.912243422048526,
,,,,,,,,,,,,,,,,,,,,,,,,,,,,,,,,,,0,0,0,0,12,0,12,0,,,,,,,,,,,,,,,,,,,,,,,,,,,,0,684,,,,139,H,star,0.001177174002805259,841.3321610499988,841.8363859659985,,,,,1,0,,,2,,,,,,,,841.8363859659985,841.8363859659985,841.8363859659985,841.8363859659985,843.3382137539993,843.3382137539993,843.3382137539993,843.3382137539993,843.3382137539993,843.3382137539993,843.3382137539993,843.3382137539993,switch,number,numSwt,d,1.1747569350045524,vtsPrac,844.5395419989982,,,,,,,,,,,,,,,,,,,,,,,36290,2022-09-21_10h13.54.520,vts_reward_expectancy_OFFLINE,2022.2.4,59.912243422048526,
,,,,,,,,,,,,,,,,,,,,,,,,,,,,,,,,,,0,0,0,0,13,0,13,0,,,,,,,,,,,,,,,,,,,,,,,,,,,,0,684,,,,132,F,triangle,0.0011071150001953356,846.5215582370001,847.0256376069992,,,,,1,0,,,2,,,,,,,,847.0256376069992,847.0256376069992,847.0256376069992,847.0256376069992,848.5273244549971,848.5273244549971,848.5273244549971,848.5273244549971,848.5273244549971,848.5273244549971,848.5273244549971,848.5273244549971,repeat,number,numRpt,d,0.7226680360035971,vtsPrac,849.2784238309978,,,,,,,,,,,,,,,,,,,,,,,36290,2022-09-21_10h13.54.520,vts_reward_expectancy_OFFLINE,2022.2.4,59.912243422048526,
,,,,,,,,,,,,,,,,,,,,,,,,,,,,,,,,,,0,0,0,0,14,0,14,0,,,,,,,,,,,,,,,,,,,,,,,,,,,,0,684,,,,125,U,hexagon,0.0011523039975145366,851.2604233040001,851.7641760849983,,,,,1,0,,,2,,,,,,,,851.7641760849983,851.7641760849983,851.7641760849983,851.7641760849983,853.2658824639984,853.2658824639984,853.2658824639984,853.2658824639984,853.2658824639984,853.2658824639984,853.2658824639984,853.2658824639984,switch,letter,lettSwt,k,1.3187994980035,vtsPrac,854.6172662129975,,,,,,,,,,,,,,,,,,,,,,,36290,2022-09-21_10h13.54.520,vts_reward_expectancy_OFFLINE,2022.2.4,59.912243422048526,
,,,,,,,,,,,,,,,,,,,,,,,,,,,,,,,,,,0,0,0,0,15,0,15,0,,,,,,,,,,,,,,,,,,,,,,,,,,,,0,684,,,,146,B,circle,0.0009424640011275187,856.5997782779996,857.1033838080002,,,,,1,0,,,2,,,,,,,,857.1033838080002,857.1033838080002,857.1033838080002,857.1033838080002,858.604897768997,858.604897768997,858.604897768997,858.604897768997,858.604897768997,858.604897768997,858.604897768997,858.604897768997,switch,number,numSwt,d,1.4444720380051876,vtsPrac,860.0732603309989,,,,,,,,,,,,,,,,,,,,,,,36290,2022-09-21_10h13.54.520,vts_reward_expectancy_OFFLINE,2022.2.4,59.912243422048526,
,,,,,,,,,,,,,,,,,,,,,,,,,,,,,,,,,,,,,,,,,,0,0,0,0,,,,,,,,,,,,,,,,,,,,,,,,0,684,,,,139,Y,triangle,0.0028330589993856847,892.857094150997,893.3600827009977,,,,,1,0,,,,,,,,,,,893.3600827009977,893.3600827009977,893.3600827009977,893.3600827009977,894.8618094509984,894.8618094509984,894.8618094509984,894.8618094509984,894.8618094509984,894.8618094509984,894.8618094509984,894.8618094509984,repeat,number,numRpt,d,0.6997191140035284,noRew,,0,895.5945642449988,,,,,,,,,,,,,,,,,,,,,36290,2022-09-21_10h13.54.520,vts_reward_expectancy_OFFLINE,2022.2.4,59.912243422048526,
,,,,,,,,,,,,,,,,,,,,,,,,,,,,,,,,,,,,,,,,,,1,0,1,0,,,,,,,,,,,,,,,,,,,,,,,,0,684,,,,160,F,circle,0.002273228998092236,897.5772289050001,898.0819035889981,,,,,1,0,,,,,,,,,,,898.0819035889981,898.0819035889981,898.0819035889981,898.0819035889981,899.5834591329985,899.5834591329985,899.5834591329985,899.5834591329985,899.5834591329985,899.5834591329985,899.5834591329985,899.5834591329985,switch,letter,lettSwt,j,1.378279222004494,noRew,,0,900.9851280179973,,,,,,,,,,,,,,,,,,,,,36290,2022-09-21_10h13.54.520,vts_reward_expectancy_OFFLINE,2022.2.4,59.912243422048526,
,,,,,,,,,,,,,,,,,,,,,,,,,,,,,,,,,,,,,,,,,,2,0,2,0,,,,,,,,,,,,,,,,,,,,,,,,0,684,,,,167,W,triangle,0.0010592969993012957,902.9675811359994,903.4711804899998,,,,,1,0,,,,,,,,,,,903.4711804899998,903.4711804899998,903.4711804899998,903.4711804899998,904.9729817959997,904.9729817959997,904.9729817959997,904.9729817959997,904.9729817959997,904.9729817959997,904.9729817959997,904.9729817959997,switch,number,numSwt,f,0.6848676900008286,noRew,,0,905.6903291499984,,,,,,,,,,,,,,,,,,,,,36290,2022-09-21_10h13.54.520,vts_reward_expectancy_OFFLINE,2022.2.4,59.912243422048526,
,,,,,,,,,,,,,,,,,,,,,,,,,,,,,,,,,,,,,,,,,,3,0,3,0,,,,,,,,,,,,,,,,,,,,,,,,0,684,,,,174,U,star,0.0010779880030895583,907.6726307489989,908.1765563869994,,,,,1,0,,,,,,,,,,,908.1765563869994,908.1765563869994,908.1765563869994,908.1765563869994,909.6781122299981,909.6781122299981,909.6781122299981,909.6781122299981,909.6781122299981,909.6781122299981,909.6781122299981,909.6781122299981,switch,letter,lettSwt,k,0.5477660010037653,noRew,,0,910.2455719419995,,,,,,,,,,,,,,,,,,,,,36290,2022-09-21_10h13.54.520,vts_reward_expectancy_OFFLINE,2022.2.4,59.912243422048526,
,,,,,,,,,,,,,,,,,,,,,,,,,,,,,,,,,,,,,,,,,,4,0,4,0,,,,,,,,,,,,,,,,,,,,,,,,0,684,,,,139,Y,triangle,0.0008331339995493181,912.2277584119984,912.731347126999,,,,,1,0,,,,,,,,,,,912.731347126999,912.731347126999,912.731347126999,912.731347126999,914.2330711059985,914.2330711059985,914.2330711059985,914.2330711059985,914.2330711059985,914.2330711059985,914.2330711059985,914.2330711059985,repeat,letter,lettRpt,k,0.5436771890053933,noRew,,0,914.800326487999,,,,,,,,,,,,,,,,,,,,,36290,2022-09-21_10h13.54.520,vts_reward_expectancy_OFFLINE,2022.2.4,59.912243422048526,
,,,,,,,,,,,,,,,,,,,,,,,,,,,,,,,,,,,,,,,,,,5,0,5,0,,,,,,,,,,,,,,,,,,,,,,,,0,684,,,,160,F,star,0.0009919299991452135,916.786386926,917.2863283749975,,,,,0,0,,,,,,,,,,,917.2863283749975,917.2863283749975,917.2863283749975,917.2863283749975,918.787966721,918.787966721,918.787966721,918.787966721,918.787966721,918.787966721,918.787966721,918.787966721,switch,number,NA,d,0.6059949310001684,noRew,,0,919.421965657999,,,,,,,,,,,,,,,,,,,,,36290,2022-09-21_10h13.54.520,vts_reward_expectancy_OFFLINE,2022.2.4,59.912243422048526,
,,,,,,,,,,,,,,,,,,,,,,,,,,,,,,,,,,,,,,,,,,6,0,6,0,,,,,,,,,,,,,,,,,,,,,,,,0,684,,,,167,W,star,0.0011349689993949141,921.404417632999,921.9081035969975,,,,,1,1,,,,,,,,,,,921.9081035969975,921.9081035969975,921.9081035969975,921.9081035969975,923.4099282610005,923.4099282610005,923.4099282610005,923.4099282610005,923.4099282610005,923.4099282610005,923.4099282610005,923.4099282610005,repeat,number,numRpt,f,0.7750681780016748,noRew,,0,924.2107492350005,,,,,,,,,,,,,,,,,,,,,36290,2022-09-21_10h13.54.520,vts_reward_expectancy_OFFLINE,2022.2.4,59.912243422048526,
,,,,,,,,,,,,,,,,,,,,,,,,,,,,,,,,,,,,,,,,,,7,0,7,0,,,,,,,,,,,,,,,,,,,,,,,,0,684,,,,174,U,circle,0.0010010759979195427,926.1930087949986,926.6966544049974,,,,,1,0,,,,,,,,,,,926.6966544049974,926.6966544049974,926.6966544049974,926.6966544049974,928.1984284699975,928.1984284699975,928.1984284699975,928.1984284699975,928.1984284699975,928.1984284699975,928.1984284699975,928.1984284699975,switch,letter,lettSwt,k,0.9868442580045667,noRew,,0,929.2162028229977,,,,,,,,,,,,,,,,,,,,,36290,2022-09-21_10h13.54.520,vts_reward_expectancy_OFFLINE,2022.2.4,59.912243422048526,
,,,,,,,,,,,,,,,,,,,,,,,,,,,,,,,,,,,,,,,,,,8,0,8,0,,,,,,,,,,,,,,,,,,,,,,,,0,684,,,,174,H,circle,0.0007917500006442424,931.1977013819997,931.7024380429975,,,,,1,0,,,,,,,,,,,931.7024380429975,931.7024380429975,931.7024380429975,931.7024380429975,933.2038087869987,933.2038087869987,933.2038087869987,933.2038087869987,933.2038087869987,933.2038087869987,933.2038087869987,933.2038087869987,switch,number,numSwt,f,0.5891591340005107,noRew,,0,933.8212621829989,,,,,,,,,,,,,,,,,,,,,36290,2022-09-21_10h13.54.520,vts_reward_expectancy_OFFLINE,2022.2.4,59.912243422048526,
,,,,,,,,,,,,,,,,,,,,,,,,,,,,,,,,,,,,,,,,,,9,0,9,0,,,,,,,,,,,,,,,,,,,,,,,,0,684,,,,139,U,triangle,0.0010395509998488706,935.803621908999,936.3074235719978,,,,,1,0,,,,,,,,,,,936.3074235719978,936.3074235719978,936.3074235719978,936.3074235719978,937.8090951939994,937.8090951939994,937.8090951939994,937.8090951939994,937.8090951939994,937.8090951939994,937.8090951939994,937.8090951939994,switch,letter,lettSwt,k,0.727716875004262,noRew,,0,938.5598237609993,,,,,,,,,,,,,,,,,,,,,36290,2022-09-21_10h13.54.520,vts_reward_expectancy_OFFLINE,2022.2.4,59.912243422048526,
,,,,,,,,,,,,,,,,,,,,,,,,,,,,,,,,,,,,,,,,,,10,0,10,0,,,,,,,,,,,,,,,,,,,,,,,,0,684,,,,181,Y,hexagon,0.0008773170011409093,940.5422240029984,941.0459380510001,,,,,1,0,,,,,,,,,,,941.0459380510001,941.0459380510001,941.0459380510001,941.0459380510001,942.547595011998,942.547595011998,942.547595011998,942.547595011998,942.547595011998,942.547595011998,942.547595011998,942.547595011998,switch,number,numSwt,f,0.6538665280022542,noRew,,0,943.231418547999,,,,,,,,,,,,,,,,,,,,,36290,2022-09-21_10h13.54.520,vts_reward_expectancy_OFFLINE,2022.2.4,59.912243422048526,
,,,,,,,,,,,,,,,,,,,,,,,,,,,,,,,,,,,,,,,,,,11,0,11,0,,,,,,,,,,,,,,,,,,,,,,,,0,684,,,,146,B,circle,0.0009139719986706041,945.213493588999,945.717628765,,,,,1,0,,,,,,,,,,,945.717628765,945.717628765,945.717628765,945.717628765,947.2194785270003,947.2194785270003,947.2194785270003,947.2194785270003,947.2194785270003,947.2194785270003,947.2194785270003,947.2194785270003,switch,letter,lettSwt,j,0.8692801820034219,noRew,,0,948.1204951330001,,,,,,,,,,,,,,,,,,,,,36290,2022-09-21_10h13.54.520,vts_reward_expectancy_OFFLINE,2022.2.4,59.912243422048526,
,,,,,,,,,,,,,,,,,,,,,,,,,,,,,,,,,,,,,,,,,,12,0,12,0,,,,,,,,,,,,,,,,,,,,,,,,0,684,,,,174,F,circle,0.0012856490029662382,950.1017415429997,950.6065921349982,,,,,1,0,,,,,,,,,,,950.6065921349982,950.6065921349982,950.6065921349982,950.6065921349982,952.1083109579995,952.1083109579995,952.1083109579995,952.1083109579995,952.1083109579995,952.1083109579995,952.1083109579995,952.1083109579995,repeat,letter,lettRpt,j,0.7343243550021725,noRew,,0,952.8592151679986,,,,,,,,,,,,,,,,,,,,,36290,2022-09-21_10h13.54.520,vts_reward_expectancy_OFFLINE,2022.2.4,59.912243422048526,
,,,,,,,,,,,,,,,,,,,,,,,,,,,,,,,,,,,,,,,,,,13,0,13,0,,,,,,,,,,,,,,,,,,,,,,,,0,684,,,,146,W,triangle,0.0005847530010214541,954.8403515350001,955.3451577839987,,,,,1,0,,,,,,,,,,,955.3451577839987,955.3451577839987,955.3451577839987,955.3451577839987,956.8467436149986,956.8467436149986,956.8467436149986,956.8467436149986,956.8467436149986,956.8467436149986,956.8467436149986,956.8467436149986,switch,number,numSwt,d,0.9942518760035455,noRew,,0,957.8645111439982,,,,,,,,,,,,,,,,,,,,,36290,2022-09-21_10h13.54.520,vts_reward_expectancy_OFFLINE,2022.2.4,59.912243422048526,
,,,,,,,,,,,,,,,,,,,,,,,,,,,,,,,,,,,,,,,,,,14,0,14,0,,,,,,,,,,,,,,,,,,,,,,,,0,684,,,,125,D,triangle,0.001147670998761896,959.846694388998,960.350529383999,,,,,1,0,,,,,,,,,,,960.350529383999,960.350529383999,960.350529383999,960.350529383999,961.8521608970004,961.8521608970004,961.8521608970004,961.8521608970004,961.8521608970004,961.8521608970004,961.8521608970004,961.8521608970004,repeat,number,numRpt,d,0.5887698960032139,noRew,,0,962.4699190329993,,,,,,,,,,,,,,,,,,,,,36290,2022-09-21_10h13.54.520,vts_reward_expectancy_OFFLINE,2022.2.4,59.912243422048526,
,,,,,,,,,,,,,,,,,,,,,,,,,,,,,,,,,,,,,,,,,,15,0,15,0,,,,,,,,,,,,,,,,,,,,,,,,0,684,,,,139,B,hexagon,0.0011638199976005126,964.4522797479985,964.9555803349976,,,,,1,0,,,,,,,,,,,964.9555803349976,964.9555803349976,964.9555803349976,964.9555803349976,966.4572230929989,966.4572230929989,966.4572230929989,966.4572230929989,966.4572230929989,966.4572230929989,966.4572230929989,966.4572230929989,repeat,number,numRpt,d,1.1924418750022596,noRew,,0,967.675533824,,,,,,,,,,,,,,,,,,,,,36290,2022-09-21_10h13.54.520,vts_reward_expectancy_OFFLINE,2022.2.4,59.912243422048526,
,,,,,,,,,,,,,,,,,,,,,,,,,,,,,,,,,,,,,,,,,,16,0,16,0,,,,,,,,,,,,,,,,,,,,,,,,0,684,,,,125,U,triangle,0.00128531100199325,969.657712035998,970.1614136459975,,,,,1,0,,,,,,,,,,,970.1614136459975,970.1614136459975,970.1614136459975,970.1614136459975,971.6631718449971,971.6631718449971,971.6631718449971,971.6631718449971,971.6631718449971,971.6631718449971,971.6631718449971,971.6631718449971,switch,letter,lettSwt,k,0.8675157400030002,noRew,,0,972.5473795819998,,,,,,,,,,,,,,,,,,,,,36290,2022-09-21_10h13.54.520,vts_reward_expectancy_OFFLINE,2022.2.4,59.912243422048526,
,,,,,,,,,,,,,,,,,,,,,,,,,,,,,,,,,,,,,,,,,,17,0,17,0,,,,,,,,,,,,,,,,,,,,,,,,0,684,,,,139,B,hexagon,0.0005304089972923975,974.5299273229975,975.0333403849982,,,,,1,0,,,,,,,,,,,975.0333403849982,975.0333403849982,975.0333403849982,975.0333403849982,976.5351628949975,976.5351628949975,976.5351628949975,976.5351628949975,976.5351628949975,976.5351628949975,976.5351628949975,976.5351628949975,repeat,letter,lettRpt,j,0.867702253999596,noRew,,0,977.4193516209998,978.921123103999,,,,,,,,,,,,,,,,,,,,36290,2022-09-21_10h13.54.520,vts_reward_expectancy_OFFLINE,2022.2.4,59.912243422048526,
,,,,,,,,,,,,,,,,,,,,,,,,,,,,,,,,,,,,,,,,,,18,0,18,0,,,,,,,,,,,,,,,,,,,,,,,,0,684,,,,160,F,hexagon,0.0007833870004105847,979.4020123829978,979.9053895659999,,,,,1,0,,,,,,,,,,,979.9053895659999,979.9053895659999,979.9053895659999,979.9053895659999,981.4071641189985,981.4071641189985,981.4071641189985,981.4071641189985,981.4071641189985,981.4071641189985,981.4071641189985,981.4071641189985,switch,number,numSwt,f,0.6513081780030916,noRew,,0,982.091104649,,,,,,,,,,,,,,,,,,,,,36290,2022-09-21_10h13.54.520,vts_reward_expectancy_OFFLINE,2022.2.4,59.912243422048526,
,,,,,,,,,,,,,,,,,,,,,,,,,,,,,,,,,,,,,,,,,,19,0,19,0,,,,,,,,,,,,,,,,,,,,,,,,0,684,,,,181,H,star,0.0011467040021670982,984.0724586319993,984.5772900159973,,,,,1,0,,,,,,,,,,,984.5772900159973,984.5772900159973,984.5772900159973,984.5772900159973,986.079415199998,986.079415199998,986.079415199998,986.079415199998,986.079415199998,986.079415199998,986.079415199998,986.079415199998,repeat,number,numRpt,f,0.4897808710047684,noRew,,0,986.5961872419975,,,,,,,,,,,,,,,,,,,,,36290,2022-09-21_10h13.54.520,vts_reward_expectancy_OFFLINE,2022.2.4,59.912243422048526,
,,,,,,,,,,,,,,,,,,,,,,,,,,,,,,,,,,,,,,,,,,20,0,20,0,,,,,,,,,,,,,,,,,,,,,,,,0,684,,,,139,U,hexagon,0.00106771100035985,988.5774212769975,989.0825209109971,,,,,1,0,,,,,,,,,,,989.0825209109971,989.0825209109971,989.0825209109971,989.0825209109971,990.5838360559974,990.5838360559974,990.5838360559974,990.5838360559974,990.5838360559974,990.5838360559974,990.5838360559974,990.5838360559974,switch,letter,lettSwt,k,0.7610670770045544,noRew,,0,991.368205499999,,,,,,,,,,,,,,,,,,,,,36290,2022-09-21_10h13.54.520,vts_reward_expectancy_OFFLINE,2022.2.4,59.912243422048526,
,,,,,,,,,,,,,,,,,,,,,,,,,,,,,,,,,,,,,,,,,,21,0,21,0,,,,,,,,,,,,,,,,,,,,,,,,0,684,,,,146,D,circle,0.0011830269977508578,993.3506838020003,993.8545037740005,,,,,1,0,,,,,,,,,,,993.8545037740005,993.8545037740005,993.8545037740005,993.8545037740005,995.3559273549981,995.3559273549981,995.3559273549981,995.3559273549981,995.3559273549981,995.3559273549981,995.3559273549981,995.3559273549981,repeat,letter,lettRpt,j,0.6458918550015369,noRew,,0,996.0232186969988,,,,,,,,,,,,,,,,,,,,,36290,2022-09-21_10h13.54.520,vts_reward_expectancy_OFFLINE,2022.2.4,59.912243422048526,
,,,,,,,,,,,,,,,,,,,,,,,,,,,,,,,,,,,,,,,,,,22,0,22,0,,,,,,,,,,,,,,,,,,,,,,,,0,684,,,,160,Y,hexagon,0.001138255000114441,998.0058276889977,998.5093578109991,,,,,1,0,,,,,,,,,,,998.5093578109991,998.5093578109991,998.5093578109991,998.5093578109991,1000.0107804439976,1000.0107804439976,1000.0107804439976,1000.0107804439976,1000.0107804439976,1000.0107804439976,1000.0107804439976,1000.0107804439976,repeat,letter,lettRpt,k,0.6867044860009628,noRew,,0,1000.7285849769978,,,,,,,,,,,,,,,,,,,,,36290,2022-09-21_10h13.54.520,vts_reward_expectancy_OFFLINE,2022.2.4,59.912243422048526,
,,,,,,,,,,,,,,,,,,,,,,,,,,,,,,,,,,,,,,,,,,23,0,23,0,,,,,,,,,,,,,,,,,,,,,,,,0,684,,,,125,H,circle,0.0011902080004801974,1002.7108512300001,1003.2145122410002,,,,,1,0,,,,,,,,,,,1003.2145122410002,1003.2145122410002,1003.2145122410002,1003.2145122410002,1004.7164120950001,1004.7164120950001,1004.7164120950001,1004.7164120950001,1004.7164120950001,1004.7164120950001,1004.7164120950001,1004.7164120950001,switch,number,numSwt,d,0.44497687100374606,noRew,,0,1005.1834660339991,,,,,,,,,,,,,,,,,,,,,36290,2022-09-21_10h13.54.520,vts_reward_expectancy_OFFLINE,2022.2.4,59.912243422048526,
,,,,,,,,,,,,,,,,,,,,,,,,,,,,,,,,,,,,,,,,,,24,0,24,0,,,,,,,,,,,,,,,,,,,,,,,,0,684,,,,125,H,star,0.0010103310014528688,1007.1646022249988,1007.6698165569978,,,,,1,0,,,,,,,,,,,1007.6698165569978,1007.6698165569978,1007.6698165569978,1007.6698165569978,1009.1712410929977,1009.1712410929977,1009.1712410929977,1009.1712410929977,1009.1712410929977,1009.1712410929977,1009.1712410929977,1009.1712410929977,repeat,number,numRpt,d,0.8229214330021932,noRew,,0,1010.0221495929982,,,,,,,,,,,,,,,,,,,,,36290,2022-09-21_10h13.54.520,vts_reward_expectancy_OFFLINE,2022.2.4,59.912243422048526,
,,,,,,,,,,,,,,,,,,,,,,,,,,,,,,,,,,,,,,,,,,25,0,25,0,,,,,,,,,,,,,,,,,,,,,,,,0,684,,,,174,B,hexagon,0.001210813999932725,1012.0032546399998,1012.5082341460002,,,,,1,0,,,,,,,,,,,1012.5082341460002,1012.5082341460002,1012.5082341460002,1012.5082341460002,1014.0098039969998,1014.0098039969998,1014.0098039969998,1014.0098039969998,1014.0098039969998,1014.0098039969998,1014.0098039969998,1014.0098039969998,repeat,number,numRpt,f,0.6068400479998672,noRew,,0,1014.6439089790001,,,,,,,,,,,,,,,,,,,,,36290,2022-09-21_10h13.54.520,vts_reward_expectancy_OFFLINE,2022.2.4,59.912243422048526,
,,,,,,,,,,,,,,,,,,,,,,,,,,,,,,,,,,,,,,,,,,26,0,26,0,,,,,,,,,,,,,,,,,,,,,,,,0,684,,,,132,D,circle,0.0010731330003181938,1016.6262689549985,1017.1301765309981,,,,,1,0,,,,,,,,,,,1017.1301765309981,1017.1301765309981,1017.1301765309981,1017.1301765309981,1018.6318388019972,1018.6318388019972,1018.6318388019972,1018.6318388019972,1018.6318388019972,1018.6318388019972,1018.6318388019972,1018.6318388019972,repeat,number,numRpt,d,0.6975634780028486,noRew,,0,1019.348904090999,,,,,,,,,,,,,,,,,,,,,36290,2022-09-21_10h13.54.520,vts_reward_expectancy_OFFLINE,2022.2.4,59.912243422048526,
,,,,,,,,,,,,,,,,,,,,,,,,,,,,,,,,,,,,,,,,,,27,0,27,0,,,,,,,,,,,,,,,,,,,,,,,,0,684,,,,146,S,triangle,0.0008296259984490462,1021.3313864390002,1021.8352604419997,,,,,1,0,,,,,,,,,,,1021.8352604419997,1021.8352604419997,1021.8352604419997,1021.8352604419997,1023.3370655670005,1023.3370655670005,1023.3370655670005,1023.3370655670005,1023.3370655670005,1023.3370655670005,1023.3370655670005,1023.3370655670005,switch,letter,lettSwt,k,0.7514250580024964,noRew,,0,1024.1210177350004,,,,,,,,,,,,,,,,,,,,,36290,2022-09-21_10h13.54.520,vts_reward_expectancy_OFFLINE,2022.2.4,59.912243422048526,
,,,,,,,,,,,,,,,,,,,,,,,,,,,,,,,,,,,,,,,,,,28,0,28,0,,,,,,,,,,,,,,,,,,,,,,,,0,684,,,,139,U,star,0.0007951789993967395,1026.1028146629978,1026.607020313997,,,,,1,0,,,,,,,,,,,1026.607020313997,1026.607020313997,1026.607020313997,1026.607020313997,1028.1085842600005,1028.1085842600005,1028.1085842600005,1028.1085842600005,1028.1085842600005,1028.1085842600005,1028.1085842600005,1028.1085842600005,switch,number,numSwt,d,0.6290813890009304,noRew,,0,1028.7597239129973,,,,,,,,,,,,,,,,,,,,,36290,2022-09-21_10h13.54.520,vts_reward_expectancy_OFFLINE,2022.2.4,59.912243422048526,
,,,,,,,,,,,,,,,,,,,,,,,,,,,,,,,,,,,,,,,,,,29,0,29,0,,,,,,,,,,,,,,,,,,,,,,,,0,684,,,,125,Y,hexagon,0.0008740819976083003,1030.7419326389972,1031.2455682969994,,,,,1,0,,,,,,,,,,,1031.2455682969994,1031.2455682969994,1031.2455682969994,1031.2455682969994,1032.747191178998,1032.747191178998,1032.747191178998,1032.747191178998,1032.747191178998,1032.747191178998,1032.747191178998,1032.747191178998,switch,letter,lettSwt,k,0.6399048220009718,noRew,,0,1033.4146367409994,,,,,,,,,,,,,,,,,,,,,36290,2022-09-21_10h13.54.520,vts_reward_expectancy_OFFLINE,2022.2.4,59.912243422048526,
,,,,,,,,,,,,,,,,,,,,,,,,,,,,,,,,,,,,,,,,,,30,0,30,0,,,,,,,,,,,,,,,,,,,,,,,,0,684,,,,167,S,hexagon,0.0009684610013209749,1035.3968003569971,1035.9004398809993,,,,,1,0,,,,,,,,,,,1035.9004398809993,1035.9004398809993,1035.9004398809993,1035.9004398809993,1037.4022042189972,1037.4022042189972,1037.4022042189972,1037.4022042189972,1037.4022042189972,1037.4022042189972,1037.4022042189972,1037.4022042189972,switch,number,numSwt,f,0.5679474990029121,noRew,,0,1038.0027613219972,,,,,,,,,,,,,,,,,,,,,36290,2022-09-21_10h13.54.520,vts_reward_expectancy_OFFLINE,2022.2.4,59.912243422048526,
,,,,,,,,,,,,,,,,,,,,,,,,,,,,,,,,,,,,,,,,,,31,0,31,0,,,,,,,,,,,,,,,,,,,,,,,,0,684,,,,132,W,circle,0.0013575129996752366,1039.984497999998,1040.4888643529994,,,,,1,0,,,,,,,,,,,1040.4888643529994,1040.4888643529994,1040.4888643529994,1040.4888643529994,1041.9906448479996,1041.9906448479996,1041.9906448479996,1041.9906448479996,1041.9906448479996,1041.9906448479996,1041.9906448479996,1041.9906448479996,repeat,number,numRpt,d,1.2683149710028374,noRew,,0,1043.2753390679973,1044.7768391949976,,,,,,,,,,,,,,,,,,,,36290,2022-09-21_10h13.54.520,vts_reward_expectancy_OFFLINE,2022.2.4,59.912243422048526,
,,,,,,,,,,,,,,,,,,,,,,,,,,,,,,,,,,,,,,,,,,32,0,32,0,,,,,,,,,,,,,,,,,,,,,,,,0,684,,,,167,H,circle,0.0008039019994612318,1045.257011851998,1045.7615192150006,,,,,1,0,,,,,,,,,,,1045.7615192150006,1045.7615192150006,1045.7615192150006,1045.7615192150006,1047.2634234299985,1047.2634234299985,1047.2634234299985,1047.2634234299985,1047.2634234299985,1047.2634234299985,1047.2634234299985,1047.2634234299985,repeat,number,numRpt,f,0.8093660980011919,noRew,,0,1048.0973612569978,,,,,,,,,,,,,,,,,,,,,36290,2022-09-21_10h13.54.520,vts_reward_expectancy_OFFLINE,2022.2.4,59.912243422048526,
,,,,,,,,,,,,,,,,,,,,,,,,,,,,,,,,,,,,,,,,,,33,0,33,0,,,,,,,,,,,,,,,,,,,,,,,,0,684,,,,146,B,hexagon,0.0008445690000371542,1050.0784342320003,1050.583347492,,,,,1,0,,,,,,,,,,,1050.583347492,1050.583347492,1050.583347492,1050.583347492,1052.0850988169987,1052.0850988169987,1052.0850988169987,1052.0850988169987,1052.0850988169987,1052.0850988169987,1052.0850988169987,1052.0850988169987,switch,letter,lettSwt,j,0.5887405320027028,noRew,,0,1052.7026348839972,,,,,,,,,,,,,,,,,,,,,36290,2022-09-21_10h13.54.520,vts_reward_expectancy_OFFLINE,2022.2.4,59.912243422048526,
,,,,,,,,,,,,,,,,,,,,,,,,,,,,,,,,,,,,,,,,,,34,0,34,0,,,,,,,,,,,,,,,,,,,,,,,,0,684,,,,174,S,hexagon,0.0006238599999051075,1054.683651766998,1055.1884299739977,,,,,1,0,,,,,,,,,,,1055.1884299739977,1055.1884299739977,1055.1884299739977,1055.1884299739977,1056.6904275550005,1056.6904275550005,1056.6904275550005,1056.6904275550005,1056.6904275550005,1056.6904275550005,1056.6904275550005,1056.6904275550005,repeat,letter,lettRpt,k,0.7111250280031527,noRew,,0,1057.4242784589987,,,,,,,,,,,,,,,,,,,,,36290,2022-09-21_10h13.54.520,vts_reward_expectancy_OFFLINE,2022.2.4,59.912243422048526,
,,,,,,,,,,,,,,,,,,,,,,,,,,,,,,,,,,,,,,,,,,35,0,35,0,,,,,,,,,,,,,,,,,,,,,,,,0,684,,,,125,D,triangle,0.0008366239999304526,1059.405978128998,1059.9105161929983,,,,,1,0,,,,,,,,,,,1059.9105161929983,1059.9105161929983,1059.9105161929983,1059.9105161929983,1061.412249863999,1061.412249863999,1061.412249863999,1061.412249863999,1061.412249863999,1061.412249863999,1061.412249863999,1061.412249863999,repeat,letter,lettRpt,j,0.7816238470040844,noRew,,0,1062.2132303580001,,,,,,,,,,,,,,,,,,,,,36290,2022-09-21_10h13.54.520,vts_reward_expectancy_OFFLINE,2022.2.4,59.912243422048526,
,,,,,,,,,,,,,,,,,,,,,,,,,,,,,,,,,,,,,,,,,,36,0,36,0,,,,,,,,,,,,,,,,,,,,,,,,0,684,,,,174,H,hexagon,0.0008201040000130888,1064.1944309009996,1064.6991178149983,,,,,1,0,,,,,,,,,,,1064.6991178149983,1064.6991178149983,1064.6991178149983,1064.6991178149983,1066.2007893819973,1066.2007893819973,1066.2007893819973,1066.2007893819973,1066.2007893819973,1066.2007893819973,1066.2007893819973,1066.2007893819973,switch,number,numSwt,f,0.9759431160018721,noRew,,0,1067.2018016059992,,,,,,,,,,,,,,,,,,,,,36290,2022-09-21_10h13.54.520,vts_reward_expectancy_OFFLINE,2022.2.4,59.912243422048526,
,,,,,,,,,,,,,,,,,,,,,,,,,,,,,,,,,,,,,,,,,,37,0,37,0,,,,,,,,,,,,,,,,,,,,,,,,0,684,,,,160,D,circle,0.001192095998703735,1069.183007233998,1069.6876879909978,,,,,1,0,,,,,,,,,,,1069.6876879909978,1069.6876879909978,1069.6876879909978,1069.6876879909978,1071.189317581,1071.189317581,1071.189317581,1071.189317581,1071.189317581,1071.189317581,1071.189317581,1071.189317581,switch,letter,lettSwt,j,0.5792748560015752,noRew,,0,1071.7900147649998,,,,,,,,,,,,,,,,,,,,,36290,2022-09-21_10h13.54.520,vts_reward_expectancy_OFFLINE,2022.2.4,59.912243422048526,
,,,,,,,,,,,,,,,,,,,,,,,,,,,,,,,,,,,,,,,,,,38,0,38,0,,,,,,,,,,,,,,,,,,,,,,,,0,684,,,,146,Y,star,0.0011563389998627827,1073.7727126749996,1074.2762014340005,,,,,1,0,,,,,,,,,,,1074.2762014340005,1074.2762014340005,1074.2762014340005,1074.2762014340005,1075.7781377039973,1075.7781377039973,1075.7781377039973,1075.7781377039973,1075.7781377039973,1075.7781377039973,1075.7781377039973,1075.7781377039973,switch,number,numSwt,d,1.1185198570019566,noRew,,0,1076.9292026580006,,,,,,,,,,,,,,,,,,,,,36290,2022-09-21_10h13.54.520,vts_reward_expectancy_OFFLINE,2022.2.4,59.912243422048526,
,,,,,,,,,,,,,,,,,,,,,,,,,,,,,,,,,,,,,,,,,,39,0,39,0,,,,,,,,,,,,,,,,,,,,,,,,0,684,,,,139,U,circle,0.0010113899988937192,1078.911625253997,1079.4150835939981,,,,,1,0,,,,,,,,,,,1079.4150835939981,1079.4150835939981,1079.4150835939981,1079.4150835939981,1080.9167650469972,1080.9167650469972,1080.9167650469972,1080.9167650469972,1080.9167650469972,1080.9167650469972,1080.9167650469972,1080.9167650469972,switch,letter,lettSwt,k,1.948344275002455,noRew,,0,1082.8856761159986,,,,,,,,,,,,,,,,,,,,,36290,2022-09-21_10h13.54.520,vts_reward_expectancy_OFFLINE,2022.2.4,59.912243422048526,
,,,,,,,,,,,,,,,,,,,,,,,,,,,,,,,,,,,,,,,,,,40,0,40,0,,,,,,,,,,,,,,,,,,,,,,,,0,684,,,,125,U,triangle,0.0007863169994379859,1084.866687466998,1085.371727529,,,,,1,0,,,,,,,,,,,1085.371727529,1085.371727529,1085.371727529,1085.371727529,1086.8734921379983,1086.8734921379983,1086.8734921379983,1086.8734921379983,1086.8734921379983,1086.8734921379983,1086.8734921379983,1086.8734921379983,switch,number,numSwt,d,0.48002513400206226,noRew,,0,1087.3740182039983,,,,,,,,,,,,,,,,,,,,,36290,2022-09-21_10h13.54.520,vts_reward_expectancy_OFFLINE,2022.2.4,59.912243422048526,
,,,,,,,,,,,,,,,,,,,,,,,,,,,,,,,,,,,,,,,,,,41,0,41,0,,,,,,,,,,,,,,,,,,,,,,,,0,684,,,,146,S,star,0.0009574100004101638,1089.3566679979995,1089.8601211459973,,,,,1,0,,,,,,,,,,,1089.8601211459973,1089.8601211459973,1089.8601211459973,1089.8601211459973,1091.361741507997,1091.361741507997,1091.361741507997,1091.361741507997,1091.361741507997,1091.361741507997,1091.361741507997,1091.361741507997,switch,letter,lettSwt,k,0.6634546860004775,noRew,,0,1092.0459082239977,,,,,,,,,,,,,,,,,,,,,36290,2022-09-21_10h13.54.520,vts_reward_expectancy_OFFLINE,2022.2.4,59.912243422048526,
,,,,,,,,,,,,,,,,,,,,,,,,,,,,,,,,,,,,,,,,,,42,0,42,0,,,,,,,,,,,,,,,,,,,,,,,,0,684,,,,167,W,hexagon,0.0008561659997212701,1094.027917872998,1094.5318495879983,,,,,1,0,,,,,,,,,,,1094.5318495879983,1094.5318495879983,1094.5318495879983,1094.5318495879983,1096.0333932489993,1096.0333932489993,1096.0333932489993,1096.0333932489993,1096.0333932489993,1096.0333932489993,1096.0333932489993,1096.0333932489993,switch,number,numSwt,f,0.5596687800025393,noRew,,0,1096.6174631430004,,,,,,,,,,,,,,,,,,,,,36290,2022-09-21_10h13.54.520,vts_reward_expectancy_OFFLINE,2022.2.4,59.912243422048526,
,,,,,,,,,,,,,,,,,,,,,,,,,,,,,,,,,,,,,,,,,,43,0,43,0,,,,,,,,,,,,,,,,,,,,,,,,0,684,,,,160,F,triangle,0.0010299739988113288,1098.5993882399998,1099.1037261780002,,,,,1,0,,,,,,,,,,,1099.1037261780002,1099.1037261780002,1099.1037261780002,1099.1037261780002,1100.6054886269994,1100.6054886269994,1100.6054886269994,1100.6054886269994,1100.6054886269994,1100.6054886269994,1100.6054886269994,1100.6054886269994,repeat,number,numRpt,f,0.6595366460023797,noRew,,0,1101.2892683399987,,,,,,,,,,,,,,,,,,,,,36290,2022-09-21_10h13.54.520,vts_reward_expectancy_OFFLINE,2022.2.4,59.912243422048526,
,,,,,,,,,,,,,,,,,,,,,,,,,,,,,,,,,,,,,,,,,,44,0,44,0,,,,,,,,,,,,,,,,,,,,,,,,0,684,,,,167,F,hexagon,0.0013272469986986835,1103.2711602870004,1103.775434801999,,,,,1,0,,,,,,,,,,,1103.775434801999,1103.775434801999,1103.775434801999,1103.775434801999,1105.2770119859997,1105.2770119859997,1105.2770119859997,1105.2770119859997,1105.2770119859997,1105.2770119859997,1105.2770119859997,1105.2770119859997,switch,letter,lettSwt,j,0.8447525350056821,noRew,,0,1106.1448144979986,,,,,,,,,,,,,,,,,,,,,36290,2022-09-21_10h13.54.520,vts_reward_expectancy_OFFLINE,2022.2.4,59.912243422048526,
,,,,,,,,,,,,,,,,,,,,,,,,,,,,,,,,,,,,,,,,,,45,0,45,0,,,,,,,,,,,,,,,,,,,,,,,,0,684,,,,139,D,triangle,0.0006130660003691446,1108.1249420519998,1108.630876602998,,,,,1,0,,,,,,,,,,,1108.630876602998,1108.630876602998,1108.630876602998,1108.630876602998,1110.1326015449995,1110.1326015449995,1110.1326015449995,1110.1326015449995,1110.1326015449995,1110.1326015449995,1110.1326015449995,1110.1326015449995,repeat,letter,lettRpt,j,0.7245365750022756,noRew,,0,1110.8832159390004,,,,,,,,,,,,,,,,,,,,,36290,2022-09-21_10h13.54.520,vts_reward_expectancy_OFFLINE,2022.2.4,59.912243422048526,
,,,,,,,,,,,,,,,,,,,,,,,,,,,,,,,,,,,,,,,,,,46,0,46,0,,,,,,,,,,,,,,,,,,,,,,,,0,684,,,,146,S,triangle,0.001367912998830434,1112.8648860769972,1113.3696882410004,,,,,1,0,,,,,,,,,,,1113.3696882410004,1113.3696882410004,1113.3696882410004,1113.3696882410004,1114.8713012609987,1114.8713012609987,1114.8713012609987,1114.8713012609987,1114.8713012609987,1114.8713012609987,1114.8713012609987,1114.8713012609987,switch,number,numSwt,d,0.4577689950019703,noRew,,0,1115.354892162999,,,,,,,,,,,,,,,,,,,,,36290,2022-09-21_10h13.54.520,vts_reward_expectancy_OFFLINE,2022.2.4,59.912243422048526,
,,,,,,,,,,,,,,,,,,,,,,,,,,,,,,,,,,,,,,,,,,47,0,47,0,,,,,,,,,,,,,,,,,,,,,,,,0,684,,,,174,W,circle,0.0007564069965155795,1117.3361691669998,1117.8409074169977,,,,,1,0,,,,,,,,,,,1117.8409074169977,1117.8409074169977,1117.8409074169977,1117.8409074169977,1119.3425442459993,1119.3425442459993,1119.3425442459993,1119.3425442459993,1119.3425442459993,1119.3425442459993,1119.3425442459993,1119.3425442459993,repeat,number,numRpt,f,0.7395138440006122,noRew,,0,1120.1100280930004,,,,,,,,,,,,,,,,,,,,,36290,2022-09-21_10h13.54.520,vts_reward_expectancy_OFFLINE,2022.2.4,59.912243422048526,
,,,,,,,,,,,,,,,,,,,,,,,,,,,,,,,,,,,,,,,,,,48,0,48,0,,,,,,,,,,,,,,,,,,,,,,,,0,684,,,,146,Y,hexagon,0.0011840719998872373,1122.0920211049997,1122.5961813449976,,,,,1,0,,,,,,,,,,,1122.5961813449976,1122.5961813449976,1122.5961813449976,1122.5961813449976,1124.09781621,1124.09781621,1124.09781621,1124.09781621,1124.09781621,1124.09781621,1124.09781621,1124.09781621,repeat,number,numRpt,d,1.0708152250008425,noRew,,0,1125.1989706629975,,,,,,,,,,,,,,,,,,,,,36290,2022-09-21_10h13.54.520,vts_reward_expectancy_OFFLINE,2022.2.4,59.912243422048526,
,,,,,,,,,,,,,,,,,,,,,,,,,,,,,,,,,,,,,,,,,,49,0,49,0,,,,,,,,,,,,,,,,,,,,,,,,0,684,,,,181,U,triangle,0.0009047339990502223,1127.1814895829993,1127.6853770529997,,,,,1,0,,,,,,,,,,,1127.6853770529997,1127.6853770529997,1127.6853770529997,1127.6853770529997,1129.186908055999,1129.186908055999,1129.186908055999,1129.186908055999,1129.186908055999,1129.186908055999,1129.186908055999,1129.186908055999,repeat,number,numRpt,f,0.7348524080043717,noRew,,0,1129.9543425029988,,,,,,,,,,,,,,,,,,,,,36290,2022-09-21_10h13.54.520,vts_reward_expectancy_OFFLINE,2022.2.4,59.912243422048526,
