LTriangleOpac,LCircleOpac,LHexagonOpac,LStarOpac,RTriangleOpac,RCircleOpac,RHexagonOpac,RStarOpac,LShape_ID,RShape_ID,training_blocks.thisRepN,training_blocks.thisTrialN,training_blocks.thisN,training_blocks.thisIndex,training.thisRepN,training.thisTrialN,training.thisN,training.thisIndex,task1_prac_redo.thisRepN,task1_prac_redo.thisTrialN,task1_prac_redo.thisN,task1_prac_redo.thisIndex,task1_prac_trials.thisRepN,task1_prac_trials.thisTrialN,task1_prac_trials.thisN,task1_prac_trials.thisIndex,task2_prac_redo.thisRepN,task2_prac_redo.thisTrialN,task2_prac_redo.thisN,task2_prac_redo.thisIndex,task2_praac_trials.thisRepN,task2_praac_trials.thisTrialN,task2_praac_trials.thisN,task2_praac_trials.thisIndex,vts_prac_redo.thisRepN,vts_prac_redo.thisTrialN,vts_prac_redo.thisN,vts_prac_redo.thisIndex,vts_practice_trials.thisRepN,vts_practice_trials.thisTrialN,vts_practice_trials.thisN,vts_practice_trials.thisIndex,trials_norew.thisRepN,trials_norew.thisTrialN,trials_norew.thisN,trials_norew.thisIndex,block.thisRepN,block.thisTrialN,block.thisN,block.thisIndex,trials_rew.thisRepN,trials_rew.thisTrialN,trials_rew.thisN,trials_rew.thisIndex,key_resp.started,key_resp.keys,key_resp.rt,training_fix.started,left_circle.started,right_circle.started,left_triangle.started,right_triangle.started,left_star.started,right_star.started,left_hexagon.started,right_hexagon.started,training_resp.started,training_resp.keys,training_resp.rt,points_trial,points_cumul,trainBlock,training_feedback_txt.started,training_feedback_txt.stopped,curr_topStim,curr_bottStim,curr_shape,ISI.started,fix.started,tgt_fix_prac1.started,top_target_prac1.started,bott_target_prac1.started,target_resp_prac1.started,top_target_prac1.stopped,bott_target_prac1.stopped,target_resp_prac1.stopped,acc,E1,target_resp_prac1.keys,pracBlock,prac_fback_text.started,target_resp_prac1.rt,prac_fback_text.stopped,tgt_fix_prac2.started,top_target_prac2.started,bott_target_prac2.started,target_resp_prac2.started,target_resp_prac2.keys,target_resp_prac2.rt,star.started,hegagon.started,triangle.started,circle.started,top_target.started,tgt_fix.started,bot_target.started,target_resp.started,star.stopped,hegagon.stopped,triangle.stopped,circle.stopped,alt,task,condition,target_resp.keys,target_resp.rt,rewCond,vts_fback.started,vts_fback.stopped,blockNum,norew_fback.started,norew_fback.stopped,key_resp_2.keys,key_resp_2.rt,rewExpect,feedbk_text.started,feedbk_text.stopped,text_3.started,text_3.stopped,button.started,debrief.index,debrief.itemText,debrief.type,debrief.granularity,debrief.font,debrief.markerColor,debrief.response,debrief.rt,button.numClicks,button.timesOn,button.timesOff,participant,date,expName,psychopyVersion,frameRate,
,,,,,,,,,,,,,,,,,,,,,,,,,,,,,,,,,,,,,,,,,,,,,,,,,,,,,,22.37690806700266,space,25.768465558998287,,,,,,,,,,,,,,,,,,,,,,,,,,,,,,,,,,,,,,,,,,,,,,,,,,,,,,,,,,,,,,,,,,,,,,,,,,,,,,,,,,,,,42648,2022-09-21_10h16.19.302,vts_reward_expectancy_OFFLINE,2022.2.4,60.10703668737808,
0,1,0,0,0,0,0,1,circle,star,0,0,0,0,0,0,0,5,,,,,,,,,,,,,,,,,,,,,,,,,,,,,,,,,,,,,,,,76.587015168996,77.06136097700073,77.06136097700073,77.06136097700073,77.06136097700073,77.06136097700073,77.06136097700073,77.06136097700073,77.06136097700073,77.06136097700073,l,2.451935545002925,10,10,0,79.54259839600127,,,,,,,,,,,,,,,,,,,,,,,,,,,,,,,,,,,,,,,,,,,,,,,,,,,,,,,,,,,,,,,,,,,,,42648,2022-09-21_10h16.19.302,vts_reward_expectancy_OFFLINE,2022.2.4,60.10703668737808,
0,0,0,1,0,1,0,0,star ,circle,0,0,0,0,0,1,1,10,,,,,,,,,,,,,,,,,,,,,,,,,,,,,,,,,,,,,,,,81.05238217499573,81.53646807099722,81.53646807099722,81.53646807099722,81.53646807099722,81.53646807099722,81.53646807099722,81.53646807099722,81.53646807099722,81.53646807099722,a,0.7127688779946766,10,20,0,82.27202105300239,83.77261766100128,,,,,,,,,,,,,,,,,,,,,,,,,,,,,,,,,,,,,,,,,,,,,,,,,,,,,,,,,,,,,,,,,,,,42648,2022-09-21_10h16.19.302,vts_reward_expectancy_OFFLINE,2022.2.4,60.10703668737808,
0,0,0,1,0,0,1,0,star,hexagon,0,0,0,0,0,2,2,11,,,,,,,,,,,,,,,,,,,,,,,,,,,,,,,,,,,,,,,,83.77261766100128,84.27267465399927,84.27267465399927,84.27267465399927,84.27267465399927,84.27267465399927,84.27267465399927,84.27267465399927,84.27267465399927,84.27267465399927,l,1.6484027319966117,1,21,0,85.94047699699877,,,,,,,,,,,,,,,,,,,,,,,,,,,,,,,,,,,,,,,,,,,,,,,,,,,,,,,,,,,,,,,,,,,,,42648,2022-09-21_10h16.19.302,vts_reward_expectancy_OFFLINE,2022.2.4,60.10703668737808,
0,0,1,0,0,0,0,1,hexagon,star,0,0,0,0,0,3,3,8,,,,,,,,,,,,,,,,,,,,,,,,,,,,,,,,,,,,,,,,87.4424562560016,87.92646024200076,87.92646024200076,87.92646024200076,87.92646024200076,87.92646024200076,87.92646024200076,87.92646024200076,87.92646024200076,87.92646024200076,l,1.6026594389986712,1,22,0,89.55882765600109,91.05991735200223,,,,,,,,,,,,,,,,,,,,,,,,,,,,,,,,,,,,,,,,,,,,,,,,,,,,,,,,,,,,,,,,,,,,42648,2022-09-21_10h16.19.302,vts_reward_expectancy_OFFLINE,2022.2.4,60.10703668737808,
0,1,0,0,0,0,1,0,circle,hexagon,0,0,0,0,0,4,4,4,,,,,,,,,,,,,,,,,,,,,,,,,,,,,,,,,,,,,,,,91.05991735200223,91.54392657300195,91.54392657300195,91.54392657300195,91.54392657300195,91.54392657300195,91.54392657300195,91.54392657300195,91.54392657300195,91.54392657300195,a,1.705582176997268,1,23,0,93.27986763400258,94.78014415600046,,,,,,,,,,,,,,,,,,,,,,,,,,,,,,,,,,,,,,,,,,,,,,,,,,,,,,,,,,,,,,,,,,,,42648,2022-09-21_10h16.19.302,vts_reward_expectancy_OFFLINE,2022.2.4,60.10703668737808,
1,0,0,0,0,0,0,1,triangle,star,0,0,0,0,0,5,5,2,,,,,,,,,,,,,,,,,,,,,,,,,,,,,,,,,,,,,,,,94.78014415600046,95.28034230799676,95.28034230799676,95.28034230799676,95.28034230799676,95.28034230799676,95.28034230799676,95.28034230799676,95.28034230799676,95.28034230799676,l,0.9365589379958692,10,33,0,96.24747560499964,,,,,,,,,,,,,,,,,,,,,,,,,,,,,,,,,,,,,,,,,,,,,,,,,,,,,,,,,,,,,,,,,,,,,42648,2022-09-21_10h16.19.302,vts_reward_expectancy_OFFLINE,2022.2.4,60.10703668737808,
0,0,1,0,0,1,0,0,hexagon,circle,0,0,0,0,0,6,6,7,,,,,,,,,,,,,,,,,,,,,,,,,,,,,,,,,,,,,,,,97.74979904799693,98.23380175900093,98.23380175900093,98.23380175900093,98.23380175900093,98.23380175900093,98.23380175900093,98.23380175900093,98.23380175900093,98.23380175900093,a,0.9684133080008905,1,34,0,99.23408634599764,100.73465121800109,,,,,,,,,,,,,,,,,,,,,,,,,,,,,,,,,,,,,,,,,,,,,,,,,,,,,,,,,,,,,,,,,,,,42648,2022-09-21_10h16.19.302,vts_reward_expectancy_OFFLINE,2022.2.4,60.10703668737808,
1,0,0,0,0,0,1,0,triangle,hexagon,0,0,0,0,0,7,7,1,,,,,,,,,,,,,,,,,,,,,,,,,,,,,,,,,,,,,,,,100.73465121800109,101.21686098400096,101.21686098400096,101.21686098400096,101.21686098400096,101.21686098400096,101.21686098400096,101.21686098400096,101.21686098400096,101.21686098400096,l,1.5688341770000989,10,44,0,102.80401477399573,104.30331621699588,,,,,,,,,,,,,,,,,,,,,,,,,,,,,,,,,,,,,,,,,,,,,,,,,,,,,,,,,,,,,,,,,,,,42648,2022-09-21_10h16.19.302,vts_reward_expectancy_OFFLINE,2022.2.4,60.10703668737808,
0,0,0,1,1,0,0,0,star,triangle,0,0,0,0,0,8,8,9,,,,,,,,,,,,,,,,,,,,,,,,,,,,,,,,,,,,,,,,104.30331621699588,104.7874067379962,104.7874067379962,104.7874067379962,104.7874067379962,104.7874067379962,104.7874067379962,104.7874067379962,104.7874067379962,104.7874067379962,a,1.7743808040031581,10,54,0,106.5880276129974,,,,,,,,,,,,,,,,,,,,,,,,,,,,,,,,,,,,,,,,,,,,,,,,,,,,,,,,,,,,,,,,,,,,,42648,2022-09-21_10h16.19.302,vts_reward_expectancy_OFFLINE,2022.2.4,60.10703668737808,
0,1,0,0,1,0,0,0,circle,triangle,0,0,0,0,0,9,9,3,,,,,,,,,,,,,,,,,,,,,,,,,,,,,,,,,,,,,,,,108.09098037499643,108.57335132099979,108.57335132099979,108.57335132099979,108.57335132099979,108.57335132099979,108.57335132099979,108.57335132099979,108.57335132099979,108.57335132099979,a,1.1884865349929896,1,55,0,109.79246720099763,,,,,,,,,,,,,,,,,,,,,,,,,,,,,,,,,,,,,,,,,,,,,,,,,,,,,,,,,,,,,,,,,,,,,42648,2022-09-21_10h16.19.302,vts_reward_expectancy_OFFLINE,2022.2.4,60.10703668737808,
0,0,1,0,1,0,0,0,hexagon,triangle,0,0,0,0,0,10,10,6,,,,,,,,,,,,,,,,,,,,,,,,,,,,,,,,,,,,,,,,111.30846869300149,111.77719559099933,111.77719559099933,111.77719559099933,111.77719559099933,111.77719559099933,111.77719559099933,111.77719559099933,111.77719559099933,111.77719559099933,a,1.4239181180018932,1,56,0,113.2282613560019,,,,,,,,,,,,,,,,,,,,,,,,,,,,,,,,,,,,,,,,,,,,,,,,,,,,,,,,,,,,,,,,,,,,,42648,2022-09-21_10h16.19.302,vts_reward_expectancy_OFFLINE,2022.2.4,60.10703668737808,
1,0,0,0,0,1,0,0,triangle,circle,0,0,0,0,0,11,11,0,,,,,,,,,,,,,,,,,,,,,,,,,,,,,,,,,,,,,,,,114.74473084499914,115.21073042199714,115.21073042199714,115.21073042199714,115.21073042199714,115.21073042199714,115.21073042199714,115.21073042199714,115.21073042199714,115.21073042199714,a,1.1668815539960633,10,66,0,116.39690449999762,,,,,,,,,,,,,,,,,,,,,,,,,,,,,,,,,,,,,,,,,,,,,,,,,,,,,,,,,,,,,,,,,,,,,42648,2022-09-21_10h16.19.302,vts_reward_expectancy_OFFLINE,2022.2.4,60.10703668737808,
1,0,0,0,0,0,0,1,triangle,star,0,0,0,0,1,0,12,2,,,,,,,,,,,,,,,,,,,,,,,,,,,,,,,,,,,,,,,,117.89826325600006,118.38062681900192,118.38062681900192,118.38062681900192,118.38062681900192,118.38062681900192,118.38062681900192,118.38062681900192,118.38062681900192,118.38062681900192,l,1.0844314319983823,10,76,0,119.49872378399596,120.99922942699777,,,,,,,,,,,,,,,,,,,,,,,,,,,,,,,,,,,,,,,,,,,,,,,,,,,,,,,,,,,,,,,,,,,,42648,2022-09-21_10h16.19.302,vts_reward_expectancy_OFFLINE,2022.2.4,60.10703668737808,
1,0,0,0,0,0,1,0,triangle,hexagon,0,0,0,0,1,1,13,1,,,,,,,,,,,,,,,,,,,,,,,,,,,,,,,,,,,,,,,,120.99922942699777,121.48143617199821,121.48143617199821,121.48143617199821,121.48143617199821,121.48143617199821,121.48143617199821,121.48143617199821,121.48143617199821,121.48143617199821,a,1.9037006610014942,10,86,0,123.4015542720008,124.90211565900245,,,,,,,,,,,,,,,,,,,,,,,,,,,,,,,,,,,,,,,,,,,,,,,,,,,,,,,,,,,,,,,,,,,,42648,2022-09-21_10h16.19.302,vts_reward_expectancy_OFFLINE,2022.2.4,60.10703668737808,
0,0,1,0,0,1,0,0,hexagon,circle,0,0,0,0,1,2,14,7,,,,,,,,,,,,,,,,,,,,,,,,,,,,,,,,,,,,,,,,124.90211565900245,125.40255271599744,125.40255271599744,125.40255271599744,125.40255271599744,125.40255271599744,125.40255271599744,125.40255271599744,125.40255271599744,125.40255271599744,l,2.751191597999423,10,96,0,128.17201294400002,129.67252129299595,,,,,,,,,,,,,,,,,,,,,,,,,,,,,,,,,,,,,,,,,,,,,,,,,,,,,,,,,,,,,,,,,,,,42648,2022-09-21_10h16.19.302,vts_reward_expectancy_OFFLINE,2022.2.4,60.10703668737808,
0,0,0,1,0,1,0,0,star ,circle,0,0,0,0,1,3,15,10,,,,,,,,,,,,,,,,,,,,,,,,,,,,,,,,,,,,,,,,129.67252129299595,130.1726637190004,130.1726637190004,130.1726637190004,130.1726637190004,130.1726637190004,130.1726637190004,130.1726637190004,130.1726637190004,130.1726637190004,a,1.357291025997256,10,106,0,131.55677445699985,,,,,,,,,,,,,,,,,,,,,,,,,,,,,,,,,,,,,,,,,,,,,,,,,,,,,,,,,,,,,,,,,,,,,42648,2022-09-21_10h16.19.302,vts_reward_expectancy_OFFLINE,2022.2.4,60.10703668737808,
0,0,1,0,0,0,0,1,hexagon,star,0,0,0,0,1,4,16,8,,,,,,,,,,,,,,,,,,,,,,,,,,,,,,,,,,,,,,,,133.0589575289996,133.54148642299697,133.54148642299697,133.54148642299697,133.54148642299697,133.54148642299697,133.54148642299697,133.54148642299697,133.54148642299697,133.54148642299697,l,0.9962294899960398,10,116,0,134.55983021800057,136.06010977299593,,,,,,,,,,,,,,,,,,,,,,,,,,,,,,,,,,,,,,,,,,,,,,,,,,,,,,,,,,,,,,,,,,,,42648,2022-09-21_10h16.19.302,vts_reward_expectancy_OFFLINE,2022.2.4,60.10703668737808,
0,1,0,0,0,0,0,1,circle,star,0,0,0,0,1,5,17,5,,,,,,,,,,,,,,,,,,,,,,,,,,,,,,,,,,,,,,,,136.06010977299593,136.5424048509958,136.5424048509958,136.5424048509958,136.5424048509958,136.5424048509958,136.5424048509958,136.5424048509958,136.5424048509958,136.5424048509958,l,1.6832979090031586,1,117,0,138.24688947999675,,,,,,,,,,,,,,,,,,,,,,,,,,,,,,,,,,,,,,,,,,,,,,,,,,,,,,,,,,,,,,,,,,,,,42648,2022-09-21_10h16.19.302,vts_reward_expectancy_OFFLINE,2022.2.4,60.10703668737808,
0,0,0,1,1,0,0,0,star,triangle,0,0,0,0,1,6,18,9,,,,,,,,,,,,,,,,,,,,,,,,,,,,,,,,,,,,,,,,139.76305305899587,140.2289897169976,140.2289897169976,140.2289897169976,140.2289897169976,140.2289897169976,140.2289897169976,140.2289897169976,140.2289897169976,140.2289897169976,a,1.3249191689974396,10,127,0,141.58079973200074,,,,,,,,,,,,,,,,,,,,,,,,,,,,,,,,,,,,,,,,,,,,,,,,,,,,,,,,,,,,,,,,,,,,,42648,2022-09-21_10h16.19.302,vts_reward_expectancy_OFFLINE,2022.2.4,60.10703668737808,
1,0,0,0,0,1,0,0,triangle,circle,0,0,0,0,1,7,19,0,,,,,,,,,,,,,,,,,,,,,,,,,,,,,,,,,,,,,,,,143.08262232499692,143.5667434930001,143.5667434930001,143.5667434930001,143.5667434930001,143.5667434930001,143.5667434930001,143.5667434930001,143.5667434930001,143.5667434930001,l,1.195017606994952,1,128,0,144.78497753199917,146.28396275400155,,,,,,,,,,,,,,,,,,,,,,,,,,,,,,,,,,,,,,,,,,,,,,,,,,,,,,,,,,,,,,,,,,,,42648,2022-09-21_10h16.19.302,vts_reward_expectancy_OFFLINE,2022.2.4,60.10703668737808,
0,0,0,1,0,0,1,0,star,hexagon,0,0,0,0,1,8,20,11,,,,,,,,,,,,,,,,,,,,,,,,,,,,,,,,,,,,,,,,146.28396275400155,146.7692284559962,146.7692284559962,146.7692284559962,146.7692284559962,146.7692284559962,146.7692284559962,146.7692284559962,146.7692284559962,146.7692284559962,a,1.8642702629949781,1,129,0,148.65375280300213,150.15391899899987,,,,,,,,,,,,,,,,,,,,,,,,,,,,,,,,,,,,,,,,,,,,,,,,,,,,,,,,,,,,,,,,,,,,42648,2022-09-21_10h16.19.302,vts_reward_expectancy_OFFLINE,2022.2.4,60.10703668737808,
0,1,0,0,1,0,0,0,circle,triangle,0,0,0,0,1,9,21,3,,,,,,,,,,,,,,,,,,,,,,,,,,,,,,,,,,,,,,,,150.15391899899987,150.63641256900155,150.63641256900155,150.63641256900155,150.63641256900155,150.63641256900155,150.63641256900155,150.63641256900155,150.63641256900155,150.63641256900155,a,1.5330010409961687,10,139,0,152.191661922996,,,,,,,,,,,,,,,,,,,,,,,,,,,,,,,,,,,,,,,,,,,,,,,,,,,,,,,,,,,,,,,,,,,,,42648,2022-09-21_10h16.19.302,vts_reward_expectancy_OFFLINE,2022.2.4,60.10703668737808,
0,0,1,0,1,0,0,0,hexagon,triangle,0,0,0,0,1,10,22,6,,,,,,,,,,,,,,,,,,,,,,,,,,,,,,,,,,,,,,,,153.7062482199981,154.1903416139976,154.1903416139976,154.1903416139976,154.1903416139976,154.1903416139976,154.1903416139976,154.1903416139976,154.1903416139976,154.1903416139976,a,2.6595458930023597,1,140,0,156.8780940689976,,,,,,,,,,,,,,,,,,,,,,,,,,,,,,,,,,,,,,,,,,,,,,,,,,,,,,,,,,,,,,,,,,,,,42648,2022-09-21_10h16.19.302,vts_reward_expectancy_OFFLINE,2022.2.4,60.10703668737808,
0,1,0,0,0,0,1,0,circle,hexagon,0,0,0,0,1,11,23,4,,,,,,,,,,,,,,,,,,,,,,,,,,,,,,,,,,,,,,,,158.3938958610015,158.85980289399595,158.85980289399595,158.85980289399595,158.85980289399595,158.85980289399595,158.85980289399595,158.85980289399595,158.85980289399595,158.85980289399595,a,1.1418385169963585,1,141,0,160.0300379399996,,,,,,,,,,,,,,,,,,,,,,,,,,,,,,,,,,,,,,,,,,,,,,,,,,,,,,,,,,,,,,,,,,,,,42648,2022-09-21_10h16.19.302,vts_reward_expectancy_OFFLINE,2022.2.4,60.10703668737808,
1,0,0,0,0,0,1,0,triangle,hexagon,0,0,0,0,2,0,24,1,,,,,,,,,,,,,,,,,,,,,,,,,,,,,,,,,,,,,,,,161.54498888799571,162.01393821099919,162.01393821099919,162.01393821099919,162.01393821099919,162.01393821099919,162.01393821099919,162.01393821099919,162.01393821099919,162.01393821099919,l,3.411465973003942,1,142,0,165.44741321200127,,,,,,,,,,,,,,,,,,,,,,,,,,,,,,,,,,,,,,,,,,,,,,,,,,,,,,,,,,,,,,,,,,,,,42648,2022-09-21_10h16.19.302,vts_reward_expectancy_OFFLINE,2022.2.4,60.10703668737808,
0,0,0,1,0,0,1,0,star,hexagon,0,0,0,0,2,1,25,11,,,,,,,,,,,,,,,,,,,,,,,,,,,,,,,,,,,,,,,,166.9504049820025,167.43442093500198,167.43442093500198,167.43442093500198,167.43442093500198,167.43442093500198,167.43442093500198,167.43442093500198,167.43442093500198,167.43442093500198,l,2.263061473997368,1,143,0,169.7173407980008,,,,,,,,,,,,,,,,,,,,,,,,,,,,,,,,,,,,,,,,,,,,,,,,,,,,,,,,,,,,,,,,,,,,,42648,2022-09-21_10h16.19.302,vts_reward_expectancy_OFFLINE,2022.2.4,60.10703668737808,
0,0,0,1,1,0,0,0,star,triangle,0,0,0,0,2,2,26,9,,,,,,,,,,,,,,,,,,,,,,,,,,,,,,,,,,,,,,,,171.2178808039971,171.70759057599935,171.70759057599935,171.70759057599935,171.70759057599935,171.70759057599935,171.70759057599935,171.70759057599935,171.70759057599935,171.70759057599935,l,1.9899304210048285,10,153,0,173.72247556300135,,,,,,,,,,,,,,,,,,,,,,,,,,,,,,,,,,,,,,,,,,,,,,,,,,,,,,,,,,,,,,,,,,,,,42648,2022-09-21_10h16.19.302,vts_reward_expectancy_OFFLINE,2022.2.4,60.10703668737808,
0,0,0,1,0,1,0,0,star ,circle,0,0,0,0,2,3,27,10,,,,,,,,,,,,,,,,,,,,,,,,,,,,,,,,,,,,,,,,175.23873378799908,175.70465362999676,175.70465362999676,175.70465362999676,175.70465362999676,175.70465362999676,175.70465362999676,175.70465362999676,175.70465362999676,175.70465362999676,l,1.6652518109985976,1,154,0,177.39232350800012,,,,,,,,,,,,,,,,,,,,,,,,,,,,,,,,,,,,,,,,,,,,,,,,,,,,,,,,,,,,,,,,,,,,,42648,2022-09-21_10h16.19.302,vts_reward_expectancy_OFFLINE,2022.2.4,60.10703668737808,
0,0,1,0,0,0,0,1,hexagon,star,0,0,0,0,2,4,28,8,,,,,,,,,,,,,,,,,,,,,,,,,,,,,,,,,,,,,,,,178.9084648930002,179.37440490500012,179.37440490500012,179.37440490500012,179.37440490500012,179.37440490500012,179.37440490500012,179.37440490500012,179.37440490500012,179.37440490500012,l,1.6108979800046654,1,155,0,181.00933237199934,,,,,,,,,,,,,,,,,,,,,,,,,,,,,,,,,,,,,,,,,,,,,,,,,,,,,,,,,,,,,,,,,,,,,42648,2022-09-21_10h16.19.302,vts_reward_expectancy_OFFLINE,2022.2.4,60.10703668737808,
1,0,0,0,0,0,0,1,triangle,star,0,0,0,0,2,5,29,2,,,,,,,,,,,,,,,,,,,,,,,,,,,,,,,,,,,,,,,,182.510659546002,182.994774271996,182.994774271996,182.994774271996,182.994774271996,182.994774271996,182.994774271996,182.994774271996,182.994774271996,182.994774271996,l,0.8062550009999541,1,156,0,183.82923100799962,,,,,,,,,,,,,,,,,,,,,,,,,,,,,,,,,,,,,,,,,,,,,,,,,,,,,,,,,,,,,,,,,,,,,42648,2022-09-21_10h16.19.302,vts_reward_expectancy_OFFLINE,2022.2.4,60.10703668737808,
0,0,1,0,1,0,0,0,hexagon,triangle,0,0,0,0,2,6,30,6,,,,,,,,,,,,,,,,,,,,,,,,,,,,,,,,,,,,,,,,185.34588493000047,185.81187833500007,185.81187833500007,185.81187833500007,185.81187833500007,185.81187833500007,185.81187833500007,185.81187833500007,185.81187833500007,185.81187833500007,a,1.9019167689984897,1,157,0,187.73106984399783,189.2317944890019,,,,,,,,,,,,,,,,,,,,,,,,,,,,,,,,,,,,,,,,,,,,,,,,,,,,,,,,,,,,,,,,,,,,42648,2022-09-21_10h16.19.302,vts_reward_expectancy_OFFLINE,2022.2.4,60.10703668737808,
0,1,0,0,0,0,1,0,circle,hexagon,0,0,0,0,2,7,31,4,,,,,,,,,,,,,,,,,,,,,,,,,,,,,,,,,,,,,,,,189.2317944890019,189.7160227639979,189.7160227639979,189.7160227639979,189.7160227639979,189.7160227639979,189.7160227639979,189.7160227639979,189.7160227639979,189.7160227639979,a,1.4376216199962073,1,158,0,191.1822887679955,,,,,,,,,,,,,,,,,,,,,,,,,,,,,,,,,,,,,,,,,,,,,,,,,,,,,,,,,,,,,,,,,,,,,42648,2022-09-21_10h16.19.302,vts_reward_expectancy_OFFLINE,2022.2.4,60.10703668737808,
1,0,0,0,0,1,0,0,triangle,circle,0,0,0,0,2,8,32,0,,,,,,,,,,,,,,,,,,,,,,,,,,,,,,,,,,,,,,,,192.6856643430001,193.16847895299725,193.16847895299725,193.16847895299725,193.16847895299725,193.16847895299725,193.16847895299725,193.16847895299725,193.16847895299725,193.16847895299725,a,1.632890673005022,10,168,0,194.8202199610023,196.31945863000146,,,,,,,,,,,,,,,,,,,,,,,,,,,,,,,,,,,,,,,,,,,,,,,,,,,,,,,,,,,,,,,,,,,,42648,2022-09-21_10h16.19.302,vts_reward_expectancy_OFFLINE,2022.2.4,60.10703668737808,
0,1,0,0,1,0,0,0,circle,triangle,0,0,0,0,2,9,33,3,,,,,,,,,,,,,,,,,,,,,,,,,,,,,,,,,,,,,,,,196.31945863000146,196.80580859399925,196.80580859399925,196.80580859399925,196.80580859399925,196.80580859399925,196.80580859399925,196.80580859399925,196.80580859399925,196.80580859399925,a,2.28383859799942,1,169,0,199.12315960299748,200.6237489529958,,,,,,,,,,,,,,,,,,,,,,,,,,,,,,,,,,,,,,,,,,,,,,,,,,,,,,,,,,,,,,,,,,,,42648,2022-09-21_10h16.19.302,vts_reward_expectancy_OFFLINE,2022.2.4,60.10703668737808,
0,0,1,0,0,1,0,0,hexagon,circle,0,0,0,0,2,10,34,7,,,,,,,,,,,,,,,,,,,,,,,,,,,,,,,,,,,,,,,,200.6237489529958,201.12366440199548,201.12366440199548,201.12366440199548,201.12366440199548,201.12366440199548,201.12366440199548,201.12366440199548,201.12366440199548,201.12366440199548,a,1.637212854999234,1,170,0,202.79309939000086,204.29398200099968,,,,,,,,,,,,,,,,,,,,,,,,,,,,,,,,,,,,,,,,,,,,,,,,,,,,,,,,,,,,,,,,,,,,42648,2022-09-21_10h16.19.302,vts_reward_expectancy_OFFLINE,2022.2.4,60.10703668737808,
0,1,0,0,0,0,0,1,circle,star,0,0,0,0,2,11,35,5,,,,,,,,,,,,,,,,,,,,,,,,,,,,,,,,,,,,,,,,204.29398200099968,204.7760194549992,204.7760194549992,204.7760194549992,204.7760194549992,204.7760194549992,204.7760194549992,204.7760194549992,204.7760194549992,204.7760194549992,a,1.5776071790023707,1,171,0,206.37680532300146,,,,,,,,,,,,,,,,,,,,,,,,,,,,,,,,,,,,,,,,,,,,,,,,,,,,,,,,,,,,,,,,,,,,,42648,2022-09-21_10h16.19.302,vts_reward_expectancy_OFFLINE,2022.2.4,60.10703668737808,
0,1,0,0,1,0,0,0,circle,triangle,1,0,1,0,0,0,0,3,,,,,,,,,,,,,,,,,,,,,,,,,,,,,,,,,,,,,,,,211.45734008200088,211.93321556400042,211.93321556400042,211.93321556400042,211.93321556400042,211.93321556400042,211.93321556400042,211.93321556400042,211.93321556400042,211.93321556400042,l,1.6446504439954879,10,181,1,213.6016884779965,,,,,,,,,,,,,,,,,,,,,,,,,,,,,,,,,,,,,,,,,,,,,,,,,,,,,,,,,,,,,,,,,,,,,42648,2022-09-21_10h16.19.302,vts_reward_expectancy_OFFLINE,2022.2.4,60.10703668737808,
1,0,0,0,0,0,0,1,triangle,star,1,0,1,0,0,1,1,2,,,,,,,,,,,,,,,,,,,,,,,,,,,,,,,,,,,,,,,,215.11791997899854,215.5841751639964,215.5841751639964,215.5841751639964,215.5841751639964,215.5841751639964,215.5841751639964,215.5841751639964,215.5841751639964,215.5841751639964,l,1.9287193669952103,10,191,1,217.53630776199861,219.03694130799704,,,,,,,,,,,,,,,,,,,,,,,,,,,,,,,,,,,,,,,,,,,,,,,,,,,,,,,,,,,,,,,,,,,,42648,2022-09-21_10h16.19.302,vts_reward_expectancy_OFFLINE,2022.2.4,60.10703668737808,
1,0,0,0,0,0,1,0,triangle,hexagon,1,0,1,0,0,2,2,1,,,,,,,,,,,,,,,,,,,,,,,,,,,,,,,,,,,,,,,,219.03694130799704,219.52127418199962,219.52127418199962,219.52127418199962,219.52127418199962,219.52127418199962,219.52127418199962,219.52127418199962,219.52127418199962,219.52127418199962,l,1.791905701997166,1,192,1,221.33949252499588,,,,,,,,,,,,,,,,,,,,,,,,,,,,,,,,,,,,,,,,,,,,,,,,,,,,,,,,,,,,,,,,,,,,,42648,2022-09-21_10h16.19.302,vts_reward_expectancy_OFFLINE,2022.2.4,60.10703668737808,
0,1,0,0,0,0,0,1,circle,star,1,0,1,0,0,3,3,5,,,,,,,,,,,,,,,,,,,,,,,,,,,,,,,,,,,,,,,,222.84080645500217,223.32451329300238,223.32451329300238,223.32451329300238,223.32451329300238,223.32451329300238,223.32451329300238,223.32451329300238,223.32451329300238,223.32451329300238,a,1.629010857992398,1,193,1,224.9750306470014,226.47574417800206,,,,,,,,,,,,,,,,,,,,,,,,,,,,,,,,,,,,,,,,,,,,,,,,,,,,,,,,,,,,,,,,,,,,42648,2022-09-21_10h16.19.302,vts_reward_expectancy_OFFLINE,2022.2.4,60.10703668737808,
0,0,0,1,1,0,0,0,star,triangle,1,0,1,0,0,4,4,9,,,,,,,,,,,,,,,,,,,,,,,,,,,,,,,,,,,,,,,,226.47574417800206,226.96129548500176,226.96129548500176,226.96129548500176,226.96129548500176,226.96129548500176,226.96129548500176,226.96129548500176,226.96129548500176,226.96129548500176,l,1.2402494199996,10,203,1,228.2300015189976,,,,,,,,,,,,,,,,,,,,,,,,,,,,,,,,,,,,,,,,,,,,,,,,,,,,,,,,,,,,,,,,,,,,,42648,2022-09-21_10h16.19.302,vts_reward_expectancy_OFFLINE,2022.2.4,60.10703668737808,
0,0,0,1,0,1,0,0,star ,circle,1,0,1,0,0,5,5,10,,,,,,,,,,,,,,,,,,,,,,,,,,,,,,,,,,,,,,,,229.74437846799992,230.22874100600166,230.22874100600166,230.22874100600166,230.22874100600166,230.22874100600166,230.22874100600166,230.22874100600166,230.22874100600166,230.22874100600166,a,1.1572200070004328,10,213,1,231.41274410399637,,,,,,,,,,,,,,,,,,,,,,,,,,,,,,,,,,,,,,,,,,,,,,,,,,,,,,,,,,,,,,,,,,,,,42648,2022-09-21_10h16.19.302,vts_reward_expectancy_OFFLINE,2022.2.4,60.10703668737808,
0,0,0,1,0,0,1,0,star,hexagon,1,0,1,0,0,6,6,11,,,,,,,,,,,,,,,,,,,,,,,,,,,,,,,,,,,,,,,,232.91408120899723,233.39846557599958,233.39846557599958,233.39846557599958,233.39846557599958,233.39846557599958,233.39846557599958,233.39846557599958,233.39846557599958,233.39846557599958,a,1.2673260779920383,10,223,1,234.69896410300134,236.19945574099984,,,,,,,,,,,,,,,,,,,,,,,,,,,,,,,,,,,,,,,,,,,,,,,,,,,,,,,,,,,,,,,,,,,,42648,2022-09-21_10h16.19.302,vts_reward_expectancy_OFFLINE,2022.2.4,60.10703668737808,
0,0,1,0,0,0,0,1,hexagon,star,1,0,1,0,0,7,7,8,,,,,,,,,,,,,,,,,,,,,,,,,,,,,,,,,,,,,,,,236.19945574099984,236.69939180799702,236.69939180799702,236.69939180799702,236.69939180799702,236.69939180799702,236.69939180799702,236.69939180799702,236.69939180799702,236.69939180799702,l,1.525842761999229,10,233,1,238.25121783399663,239.75164267399668,,,,,,,,,,,,,,,,,,,,,,,,,,,,,,,,,,,,,,,,,,,,,,,,,,,,,,,,,,,,,,,,,,,,42648,2022-09-21_10h16.19.302,vts_reward_expectancy_OFFLINE,2022.2.4,60.10703668737808,
1,0,0,0,0,1,0,0,triangle,circle,1,0,1,0,0,8,8,0,,,,,,,,,,,,,,,,,,,,,,,,,,,,,,,,,,,,,,,,239.75164267399668,240.2360870229968,240.2360870229968,240.2360870229968,240.2360870229968,240.2360870229968,240.2360870229968,240.2360870229968,240.2360870229968,240.2360870229968,a,0.9336452409988851,10,243,1,241.18659474499873,,,,,,,,,,,,,,,,,,,,,,,,,,,,,,,,,,,,,,,,,,,,,,,,,,,,,,,,,,,,,,,,,,,,,42648,2022-09-21_10h16.19.302,vts_reward_expectancy_OFFLINE,2022.2.4,60.10703668737808,
0,0,1,0,1,0,0,0,hexagon,triangle,1,0,1,0,0,9,9,6,,,,,,,,,,,,,,,,,,,,,,,,,,,,,,,,,,,,,,,,242.68930014399666,243.1714589990006,243.1714589990006,243.1714589990006,243.1714589990006,243.1714589990006,243.1714589990006,243.1714589990006,243.1714589990006,243.1714589990006,a,1.0214863879955374,10,253,1,244.2218878049971,245.72226170900103,,,,,,,,,,,,,,,,,,,,,,,,,,,,,,,,,,,,,,,,,,,,,,,,,,,,,,,,,,,,,,,,,,,,42648,2022-09-21_10h16.19.302,vts_reward_expectancy_OFFLINE,2022.2.4,60.10703668737808,
0,1,0,0,0,0,1,0,circle,hexagon,1,0,1,0,0,10,10,4,,,,,,,,,,,,,,,,,,,,,,,,,,,,,,,,,,,,,,,,245.72226170900103,246.2067040949987,246.2067040949987,246.2067040949987,246.2067040949987,246.2067040949987,246.2067040949987,246.2067040949987,246.2067040949987,246.2067040949987,l,0.8347935450001387,10,263,1,247.0578985739994,248.55854289900162,,,,,,,,,,,,,,,,,,,,,,,,,,,,,,,,,,,,,,,,,,,,,,,,,,,,,,,,,,,,,,,,,,,,42648,2022-09-21_10h16.19.302,vts_reward_expectancy_OFFLINE,2022.2.4,60.10703668737808,
0,0,1,0,0,1,0,0,hexagon,circle,1,0,1,0,0,11,11,7,,,,,,,,,,,,,,,,,,,,,,,,,,,,,,,,,,,,,,,,248.55854289900162,249.04272663199663,249.04272663199663,249.04272663199663,249.04272663199663,249.04272663199663,249.04272663199663,249.04272663199663,249.04272663199663,249.04272663199663,a,0.5670143759998609,10,273,1,249.6427471049974,251.14368903500144,,,,,,,,,,,,,,,,,,,,,,,,,,,,,,,,,,,,,,,,,,,,,,,,,,,,,,,,,,,,,,,,,,,,42648,2022-09-21_10h16.19.302,vts_reward_expectancy_OFFLINE,2022.2.4,60.10703668737808,
0,0,0,1,0,1,0,0,star ,circle,1,0,1,0,1,0,12,10,,,,,,,,,,,,,,,,,,,,,,,,,,,,,,,,,,,,,,,,251.14368903500144,251.64348951500142,251.64348951500142,251.64348951500142,251.64348951500142,251.64348951500142,251.64348951500142,251.64348951500142,251.64348951500142,251.64348951500142,a,0.5899997020023875,10,283,1,252.26244010299706,253.76309595000203,,,,,,,,,,,,,,,,,,,,,,,,,,,,,,,,,,,,,,,,,,,,,,,,,,,,,,,,,,,,,,,,,,,,42648,2022-09-21_10h16.19.302,vts_reward_expectancy_OFFLINE,2022.2.4,60.10703668737808,
1,0,0,0,0,0,1,0,triangle,hexagon,1,0,1,0,1,1,13,1,,,,,,,,,,,,,,,,,,,,,,,,,,,,,,,,,,,,,,,,253.76309595000203,254.2631109319991,254.2631109319991,254.2631109319991,254.2631109319991,254.2631109319991,254.2631109319991,254.2631109319991,254.2631109319991,254.2631109319991,l,0.8265030550028314,10,293,1,255.11373578899656,256.61376002900215,,,,,,,,,,,,,,,,,,,,,,,,,,,,,,,,,,,,,,,,,,,,,,,,,,,,,,,,,,,,,,,,,,,,42648,2022-09-21_10h16.19.302,vts_reward_expectancy_OFFLINE,2022.2.4,60.10703668737808,
0,0,0,1,0,0,1,0,star,hexagon,1,0,1,0,1,2,14,11,,,,,,,,,,,,,,,,,,,,,,,,,,,,,,,,,,,,,,,,256.61376002900215,257.09926741600066,257.09926741600066,257.09926741600066,257.09926741600066,257.09926741600066,257.09926741600066,257.09926741600066,257.09926741600066,257.09926741600066,a,1.0301952469962998,1,294,1,258.15208270100266,,,,,,,,,,,,,,,,,,,,,,,,,,,,,,,,,,,,,,,,,,,,,,,,,,,,,,,,,,,,,,,,,,,,,42648,2022-09-21_10h16.19.302,vts_reward_expectancy_OFFLINE,2022.2.4,60.10703668737808,
0,0,1,0,0,0,0,1,hexagon,star,1,0,1,0,1,3,15,8,,,,,,,,,,,,,,,,,,,,,,,,,,,,,,,,,,,,,,,,259.6661222979965,260.15045494499645,260.15045494499645,260.15045494499645,260.15045494499645,260.15045494499645,260.15045494499645,260.15045494499645,260.15045494499645,260.15045494499645,a,1.4107378449989483,10,304,1,261.58523114299896,,,,,,,,,,,,,,,,,,,,,,,,,,,,,,,,,,,,,,,,,,,,,,,,,,,,,,,,,,,,,,,,,,,,,42648,2022-09-21_10h16.19.302,vts_reward_expectancy_OFFLINE,2022.2.4,60.10703668737808,
0,1,0,0,0,0,1,0,circle,hexagon,1,0,1,0,1,4,16,4,,,,,,,,,,,,,,,,,,,,,,,,,,,,,,,,,,,,,,,,263.0859356479996,263.57030944299913,263.57030944299913,263.57030944299913,263.57030944299913,263.57030944299913,263.57030944299913,263.57030944299913,263.57030944299913,263.57030944299913,l,0.863228624999465,10,314,1,264.45411998299824,265.954820965002,,,,,,,,,,,,,,,,,,,,,,,,,,,,,,,,,,,,,,,,,,,,,,,,,,,,,,,,,,,,,,,,,,,,42648,2022-09-21_10h16.19.302,vts_reward_expectancy_OFFLINE,2022.2.4,60.10703668737808,
0,0,0,1,1,0,0,0,star,triangle,1,0,1,0,1,5,17,9,,,,,,,,,,,,,,,,,,,,,,,,,,,,,,,,,,,,,,,,265.954820965002,266.4370381760018,266.4370381760018,266.4370381760018,266.4370381760018,266.4370381760018,266.4370381760018,266.4370381760018,266.4370381760018,266.4370381760018,a,1.4524905020007282,1,315,1,267.9091008949981,,,,,,,,,,,,,,,,,,,,,,,,,,,,,,,,,,,,,,,,,,,,,,,,,,,,,,,,,,,,,,,,,,,,,42648,2022-09-21_10h16.19.302,vts_reward_expectancy_OFFLINE,2022.2.4,60.10703668737808,
0,1,0,0,1,0,0,0,circle,triangle,1,0,1,0,1,6,18,3,,,,,,,,,,,,,,,,,,,,,,,,,,,,,,,,,,,,,,,,269.42309225200006,269.90781037599663,269.90781037599663,269.90781037599663,269.90781037599663,269.90781037599663,269.90781037599663,269.90781037599663,269.90781037599663,269.90781037599663,l,1.7252392800000962,10,325,1,271.660379930996,,,,,,,,,,,,,,,,,,,,,,,,,,,,,,,,,,,,,,,,,,,,,,,,,,,,,,,,,,,,,,,,,,,,,42648,2022-09-21_10h16.19.302,vts_reward_expectancy_OFFLINE,2022.2.4,60.10703668737808,
0,0,1,0,1,0,0,0,hexagon,triangle,1,0,1,0,1,7,19,6,,,,,,,,,,,,,,,,,,,,,,,,,,,,,,,,,,,,,,,,273.16119453099964,273.64345967100235,273.64345967100235,273.64345967100235,273.64345967100235,273.64345967100235,273.64345967100235,273.64345967100235,273.64345967100235,273.64345967100235,a,1.886103438999271,10,335,1,275.5616989350019,,,,,,,,,,,,,,,,,,,,,,,,,,,,,,,,,,,,,,,,,,,,,,,,,,,,,,,,,,,,,,,,,,,,,42648,2022-09-21_10h16.19.302,vts_reward_expectancy_OFFLINE,2022.2.4,60.10703668737808,
0,0,1,0,0,1,0,0,hexagon,circle,1,0,1,0,1,8,20,7,,,,,,,,,,,,,,,,,,,,,,,,,,,,,,,,,,,,,,,,277.06381284599775,277.54782791600155,277.54782791600155,277.54782791600155,277.54782791600155,277.54782791600155,277.54782791600155,277.54782791600155,277.54782791600155,277.54782791600155,a,1.5976842070012935,1,336,1,279.1672487899996,,,,,,,,,,,,,,,,,,,,,,,,,,,,,,,,,,,,,,,,,,,,,,,,,,,,,,,,,,,,,,,,,,,,,42648,2022-09-21_10h16.19.302,vts_reward_expectancy_OFFLINE,2022.2.4,60.10703668737808,
1,0,0,0,0,0,0,1,triangle,star,1,0,1,0,1,9,21,2,,,,,,,,,,,,,,,,,,,,,,,,,,,,,,,,,,,,,,,,280.6810314059985,281.1652689679977,281.1652689679977,281.1652689679977,281.1652689679977,281.1652689679977,281.1652689679977,281.1652689679977,281.1652689679977,281.1652689679977,l,1.4601377679937286,1,337,1,282.6503292260022,284.1509077340015,,,,,,,,,,,,,,,,,,,,,,,,,,,,,,,,,,,,,,,,,,,,,,,,,,,,,,,,,,,,,,,,,,,,42648,2022-09-21_10h16.19.302,vts_reward_expectancy_OFFLINE,2022.2.4,60.10703668737808,
0,1,0,0,0,0,0,1,circle,star,1,0,1,0,1,10,22,5,,,,,,,,,,,,,,,,,,,,,,,,,,,,,,,,,,,,,,,,284.1509077340015,284.63512097499915,284.63512097499915,284.63512097499915,284.63512097499915,284.63512097499915,284.63512097499915,284.63512097499915,284.63512097499915,284.63512097499915,l,1.1103687639988493,1,338,1,285.76869619100034,,,,,,,,,,,,,,,,,,,,,,,,,,,,,,,,,,,,,,,,,,,,,,,,,,,,,,,,,,,,,,,,,,,,,42648,2022-09-21_10h16.19.302,vts_reward_expectancy_OFFLINE,2022.2.4,60.10703668737808,
1,0,0,0,0,1,0,0,triangle,circle,1,0,1,0,1,11,23,0,,,,,,,,,,,,,,,,,,,,,,,,,,,,,,,,,,,,,,,,287.2711707920025,287.7548479210018,287.7548479210018,287.7548479210018,287.7548479210018,287.7548479210018,287.7548479210018,287.7548479210018,287.7548479210018,287.7548479210018,a,2.0227398869974422,10,348,1,289.80665155500174,,,,,,,,,,,,,,,,,,,,,,,,,,,,,,,,,,,,,,,,,,,,,,,,,,,,,,,,,,,,,,,,,,,,,42648,2022-09-21_10h16.19.302,vts_reward_expectancy_OFFLINE,2022.2.4,60.10703668737808,
1,0,0,0,0,0,0,1,triangle,star,1,0,1,0,2,0,24,2,,,,,,,,,,,,,,,,,,,,,,,,,,,,,,,,,,,,,,,,291.3229271050004,291.7944435919999,291.7944435919999,291.7944435919999,291.7944435919999,291.7944435919999,291.7944435919999,291.7944435919999,291.7944435919999,291.7944435919999,a,0.9184626269998262,10,358,1,292.74091397199663,294.2416871890018,,,,,,,,,,,,,,,,,,,,,,,,,,,,,,,,,,,,,,,,,,,,,,,,,,,,,,,,,,,,,,,,,,,,42648,2022-09-21_10h16.19.302,vts_reward_expectancy_OFFLINE,2022.2.4,60.10703668737808,
1,0,0,0,0,0,1,0,triangle,hexagon,1,0,1,0,2,1,25,1,,,,,,,,,,,,,,,,,,,,,,,,,,,,,,,,,,,,,,,,294.2416871890018,294.725911169,294.725911169,294.725911169,294.725911169,294.725911169,294.725911169,294.725911169,294.725911169,294.725911169,a,0.7479107250037487,10,368,1,295.49182368900074,,,,,,,,,,,,,,,,,,,,,,,,,,,,,,,,,,,,,,,,,,,,,,,,,,,,,,,,,,,,,,,,,,,,,42648,2022-09-21_10h16.19.302,vts_reward_expectancy_OFFLINE,2022.2.4,60.10703668737808,
0,0,0,1,1,0,0,0,star,triangle,1,0,1,0,2,2,26,9,,,,,,,,,,,,,,,,,,,,,,,,,,,,,,,,,,,,,,,,296.99526644100115,297.4790639979983,297.4790639979983,297.4790639979983,297.4790639979983,297.4790639979983,297.4790639979983,297.4790639979983,297.4790639979983,297.4790639979983,l,1.8658588669932215,1,369,1,299.3637885040007,300.86229408800136,,,,,,,,,,,,,,,,,,,,,,,,,,,,,,,,,,,,,,,,,,,,,,,,,,,,,,,,,,,,,,,,,,,,42648,2022-09-21_10h16.19.302,vts_reward_expectancy_OFFLINE,2022.2.4,60.10703668737808,
1,0,0,0,0,1,0,0,triangle,circle,1,0,1,0,2,3,27,0,,,,,,,,,,,,,,,,,,,,,,,,,,,,,,,,,,,,,,,,300.86229408800136,301.3462721190008,301.3462721190008,301.3462721190008,301.3462721190008,301.3462721190008,301.3462721190008,301.3462721190008,301.3462721190008,301.3462721190008,a,1.4386283549974905,10,379,1,302.81704171300225,,,,,,,,,,,,,,,,,,,,,,,,,,,,,,,,,,,,,,,,,,,,,,,,,,,,,,,,,,,,,,,,,,,,,42648,2022-09-21_10h16.19.302,vts_reward_expectancy_OFFLINE,2022.2.4,60.10703668737808,
0,0,0,1,0,1,0,0,star ,circle,1,0,1,0,2,4,28,10,,,,,,,,,,,,,,,,,,,,,,,,,,,,,,,,,,,,,,,,304.3327692410021,304.7990826059977,304.7990826059977,304.7990826059977,304.7990826059977,304.7990826059977,304.7990826059977,304.7990826059977,304.7990826059977,304.7990826059977,a,2.0185280029982096,10,389,1,306.8373377169992,,,,,,,,,,,,,,,,,,,,,,,,,,,,,,,,,,,,,,,,,,,,,,,,,,,,,,,,,,,,,,,,,,,,,42648,2022-09-21_10h16.19.302,vts_reward_expectancy_OFFLINE,2022.2.4,60.10703668737808,
0,1,0,0,0,0,1,0,circle,hexagon,1,0,1,0,2,5,29,4,,,,,,,,,,,,,,,,,,,,,,,,,,,,,,,,,,,,,,,,308.3527315559986,308.83680711800116,308.83680711800116,308.83680711800116,308.83680711800116,308.83680711800116,308.83680711800116,308.83680711800116,308.83680711800116,308.83680711800116,l,2.660907673998736,10,399,1,311.5199840580026,,,,,,,,,,,,,,,,,,,,,,,,,,,,,,,,,,,,,,,,,,,,,,,,,,,,,,,,,,,,,,,,,,,,,42648,2022-09-21_10h16.19.302,vts_reward_expectancy_OFFLINE,2022.2.4,60.10703668737808,
0,0,0,1,0,0,1,0,star,hexagon,1,0,1,0,2,6,30,11,,,,,,,,,,,,,,,,,,,,,,,,,,,,,,,,,,,,,,,,313.02349464599683,313.5057697230004,313.5057697230004,313.5057697230004,313.5057697230004,313.5057697230004,313.5057697230004,313.5057697230004,313.5057697230004,313.5057697230004,a,3.039235424999788,1,400,1,316.5754668419977,,,,,,,,,,,,,,,,,,,,,,,,,,,,,,,,,,,,,,,,,,,,,,,,,,,,,,,,,,,,,,,,,,,,,42648,2022-09-21_10h16.19.302,vts_reward_expectancy_OFFLINE,2022.2.4,60.10703668737808,
0,0,1,0,1,0,0,0,hexagon,triangle,1,0,1,0,2,7,31,6,,,,,,,,,,,,,,,,,,,,,,,,,,,,,,,,,,,,,,,,318.077169391996,318.5594657900001,318.5594657900001,318.5594657900001,318.5594657900001,318.5594657900001,318.5594657900001,318.5594657900001,318.5594657900001,318.5594657900001,l,2.602139968999836,10,410,1,321.19618546999845,322.6968950090013,,,,,,,,,,,,,,,,,,,,,,,,,,,,,,,,,,,,,,,,,,,,,,,,,,,,,,,,,,,,,,,,,,,,42648,2022-09-21_10h16.19.302,vts_reward_expectancy_OFFLINE,2022.2.4,60.10703668737808,
0,1,0,0,0,0,0,1,circle,star,1,0,1,0,2,8,32,5,,,,,,,,,,,,,,,,,,,,,,,,,,,,,,,,,,,,,,,,322.6968950090013,323.1969950709972,323.1969950709972,323.1969950709972,323.1969950709972,323.1969950709972,323.1969950709972,323.1969950709972,323.1969950709972,323.1969950709972,l,2.6126893010005006,10,420,1,325.8316711910011,,,,,,,,,,,,,,,,,,,,,,,,,,,,,,,,,,,,,,,,,,,,,,,,,,,,,,,,,,,,,,,,,,,,,42648,2022-09-21_10h16.19.302,vts_reward_expectancy_OFFLINE,2022.2.4,60.10703668737808,
0,0,1,0,0,1,0,0,hexagon,circle,1,0,1,0,2,9,33,7,,,,,,,,,,,,,,,,,,,,,,,,,,,,,,,,,,,,,,,,327.33299006299785,327.81717471100274,327.81717471100274,327.81717471100274,327.81717471100274,327.81717471100274,327.81717471100274,327.81717471100274,327.81717471100274,327.81717471100274,l,3.0563286199976574,1,421,1,330.9030614479998,,,,,,,,,,,,,,,,,,,,,,,,,,,,,,,,,,,,,,,,,,,,,,,,,,,,,,,,,,,,,,,,,,,,,42648,2022-09-21_10h16.19.302,vts_reward_expectancy_OFFLINE,2022.2.4,60.10703668737808,
0,1,0,0,1,0,0,0,circle,triangle,1,0,1,0,2,10,34,3,,,,,,,,,,,,,,,,,,,,,,,,,,,,,,,,,,,,,,,,332.4038151490022,332.88802803499857,332.88802803499857,332.88802803499857,332.88802803499857,332.88802803499857,332.88802803499857,332.88802803499857,332.88802803499857,332.88802803499857,l,1.417049532996316,1,422,1,334.32122605999757,335.82101004899596,,,,,,,,,,,,,,,,,,,,,,,,,,,,,,,,,,,,,,,,,,,,,,,,,,,,,,,,,,,,,,,,,,,,42648,2022-09-21_10h16.19.302,vts_reward_expectancy_OFFLINE,2022.2.4,60.10703668737808,
0,0,1,0,0,0,0,1,hexagon,star,1,0,1,0,2,11,35,8,,,,,,,,,,,,,,,,,,,,,,,,,,,,,,,,,,,,,,,,335.82101004899596,336.30504221499723,336.30504221499723,336.30504221499723,336.30504221499723,336.30504221499723,336.30504221499723,336.30504221499723,336.30504221499723,336.30504221499723,l,1.4245843309981865,1,423,1,337.75809904700145,339.2630486920025,,,,,,,,,,,,,,,,,,,,,,,,,,,,,,,,,,,,,,,,,,,,,,,,,,,,,,,,,,,,,,,,,,,,42648,2022-09-21_10h16.19.302,vts_reward_expectancy_OFFLINE,2022.2.4,60.10703668737808,
0,0,1,0,1,0,0,0,hexagon,triangle,2,0,2,0,0,0,0,6,,,,,,,,,,,,,,,,,,,,,,,,,,,,,,,,,,,,,,,,341.66898760599724,342.14367190100165,342.14367190100165,342.14367190100165,342.14367190100165,342.14367190100165,342.14367190100165,342.14367190100165,342.14367190100165,342.14367190100165,l,1.458154467996792,10,433,2,343.6307589470016,,,,,,,,,,,,,,,,,,,,,,,,,,,,,,,,,,,,,,,,,,,,,,,,,,,,,,,,,,,,,,,,,,,,,42648,2022-09-21_10h16.19.302,vts_reward_expectancy_OFFLINE,2022.2.4,60.10703668737808,
0,0,1,0,0,1,0,0,hexagon,circle,2,0,2,0,0,1,1,7,,,,,,,,,,,,,,,,,,,,,,,,,,,,,,,,,,,,,,,,345.1445719399999,345.6289696179956,345.6289696179956,345.6289696179956,345.6289696179956,345.6289696179956,345.6289696179956,345.6289696179956,345.6289696179956,345.6289696179956,l,1.516624129995762,1,434,2,347.1672166060016,,,,,,,,,,,,,,,,,,,,,,,,,,,,,,,,,,,,,,,,,,,,,,,,,,,,,,,,,,,,,,,,,,,,,42648,2022-09-21_10h16.19.302,vts_reward_expectancy_OFFLINE,2022.2.4,60.10703668737808,
0,0,0,1,0,0,1,0,star,hexagon,2,0,2,0,0,2,2,11,,,,,,,,,,,,,,,,,,,,,,,,,,,,,,,,,,,,,,,,348.68123619900143,349.16563653999765,349.16563653999765,349.16563653999765,349.16563653999765,349.16563653999765,349.16563653999765,349.16563653999765,349.16563653999765,349.16563653999765,a,1.19571621799696,10,444,2,350.38399000700156,,,,,,,,,,,,,,,,,,,,,,,,,,,,,,,,,,,,,,,,,,,,,,,,,,,,,,,,,,,,,,,,,,,,,42648,2022-09-21_10h16.19.302,vts_reward_expectancy_OFFLINE,2022.2.4,60.10703668737808,
1,0,0,0,0,0,1,0,triangle,hexagon,2,0,2,0,0,3,3,1,,,,,,,,,,,,,,,,,,,,,,,,,,,,,,,,,,,,,,,,351.8847954840021,352.36870674500096,352.36870674500096,352.36870674500096,352.36870674500096,352.36870674500096,352.36870674500096,352.36870674500096,352.36870674500096,352.36870674500096,a,2.2645067929988727,10,454,2,354.65196711700264,356.1524942469987,,,,,,,,,,,,,,,,,,,,,,,,,,,,,,,,,,,,,,,,,,,,,,,,,,,,,,,,,,,,,,,,,,,,42648,2022-09-21_10h16.19.302,vts_reward_expectancy_OFFLINE,2022.2.4,60.10703668737808,
0,0,1,0,0,0,0,1,hexagon,star,2,0,2,0,0,4,4,8,,,,,,,,,,,,,,,,,,,,,,,,,,,,,,,,,,,,,,,,356.1524942469987,356.63680728799955,356.63680728799955,356.63680728799955,356.63680728799955,356.63680728799955,356.63680728799955,356.63680728799955,356.63680728799955,356.63680728799955,l,1.3488606529936078,1,455,2,358.0071792669987,,,,,,,,,,,,,,,,,,,,,,,,,,,,,,,,,,,,,,,,,,,,,,,,,,,,,,,,,,,,,,,,,,,,,42648,2022-09-21_10h16.19.302,vts_reward_expectancy_OFFLINE,2022.2.4,60.10703668737808,
0,0,0,1,0,1,0,0,star ,circle,2,0,2,0,0,5,5,10,,,,,,,,,,,,,,,,,,,,,,,,,,,,,,,,,,,,,,,,359.50678087899723,359.98889602800045,359.98889602800045,359.98889602800045,359.98889602800045,359.98889602800045,359.98889602800045,359.98889602800045,359.98889602800045,359.98889602800045,l,1.651909029998933,10,465,2,361.6738731639998,,,,,,,,,,,,,,,,,,,,,,,,,,,,,,,,,,,,,,,,,,,,,,,,,,,,,,,,,,,,,,,,,,,,,42648,2022-09-21_10h16.19.302,vts_reward_expectancy_OFFLINE,2022.2.4,60.10703668737808,
1,0,0,0,0,0,0,1,triangle,star,2,0,2,0,0,6,6,2,,,,,,,,,,,,,,,,,,,,,,,,,,,,,,,,,,,,,,,,363.1765377990014,363.65888429999904,363.65888429999904,363.65888429999904,363.65888429999904,363.65888429999904,363.65888429999904,363.65888429999904,363.65888429999904,363.65888429999904,a,1.4630523310042918,10,475,2,365.1438272899977,366.6439684470024,,,,,,,,,,,,,,,,,,,,,,,,,,,,,,,,,,,,,,,,,,,,,,,,,,,,,,,,,,,,,,,,,,,,42648,2022-09-21_10h16.19.302,vts_reward_expectancy_OFFLINE,2022.2.4,60.10703668737808,
0,1,0,0,1,0,0,0,circle,triangle,2,0,2,0,0,7,7,3,,,,,,,,,,,,,,,,,,,,,,,,,,,,,,,,,,,,,,,,366.6439684470024,367.1292848430021,367.1292848430021,367.1292848430021,367.1292848430021,367.1292848430021,367.1292848430021,367.1292848430021,367.1292848430021,367.1292848430021,l,2.1117193050013157,10,485,2,369.264022313997,370.7640593949982,,,,,,,,,,,,,,,,,,,,,,,,,,,,,,,,,,,,,,,,,,,,,,,,,,,,,,,,,,,,,,,,,,,,42648,2022-09-21_10h16.19.302,vts_reward_expectancy_OFFLINE,2022.2.4,60.10703668737808,
0,1,0,0,0,0,0,1,circle,star,2,0,2,0,0,8,8,5,,,,,,,,,,,,,,,,,,,,,,,,,,,,,,,,,,,,,,,,370.7640593949982,371.2466326040012,371.2466326040012,371.2466326040012,371.2466326040012,371.2466326040012,371.2466326040012,371.2466326040012,371.2466326040012,371.2466326040012,a,1.4751971079967916,1,486,2,372.7521388160021,,,,,,,,,,,,,,,,,,,,,,,,,,,,,,,,,,,,,,,,,,,,,,,,,,,,,,,,,,,,,,,,,,,,,42648,2022-09-21_10h16.19.302,vts_reward_expectancy_OFFLINE,2022.2.4,60.10703668737808,
0,0,0,1,1,0,0,0,star,triangle,2,0,2,0,0,9,9,9,,,,,,,,,,,,,,,,,,,,,,,,,,,,,,,,,,,,,,,,374.250492262996,374.75056339,374.75056339,374.75056339,374.75056339,374.75056339,374.75056339,374.75056339,374.75056339,374.75056339,l,2.03447403699829,10,496,2,376.818192879,378.32102321899583,,,,,,,,,,,,,,,,,,,,,,,,,,,,,,,,,,,,,,,,,,,,,,,,,,,,,,,,,,,,,,,,,,,,42648,2022-09-21_10h16.19.302,vts_reward_expectancy_OFFLINE,2022.2.4,60.10703668737808,
0,1,0,0,0,0,1,0,circle,hexagon,2,0,2,0,0,10,10,4,,,,,,,,,,,,,,,,,,,,,,,,,,,,,,,,,,,,,,,,378.32102321899583,378.8029313369989,378.8029313369989,378.8029313369989,378.8029313369989,378.8029313369989,378.8029313369989,378.8029313369989,378.8029313369989,378.8029313369989,a,1.910815596995235,1,497,2,380.76490135600034,,,,,,,,,,,,,,,,,,,,,,,,,,,,,,,,,,,,,,,,,,,,,,,,,,,,,,,,,,,,,,,,,,,,,42648,2022-09-21_10h16.19.302,vts_reward_expectancy_OFFLINE,2022.2.4,60.10703668737808,
1,0,0,0,0,1,0,0,triangle,circle,2,0,2,0,0,11,11,0,,,,,,,,,,,,,,,,,,,,,,,,,,,,,,,,,,,,,,,,382.2737800929972,382.75632989800215,382.75632989800215,382.75632989800215,382.75632989800215,382.75632989800215,382.75632989800215,382.75632989800215,382.75632989800215,382.75632989800215,a,3.9728894959989702,10,507,2,386.7602139189985,,,,,,,,,,,,,,,,,,,,,,,,,,,,,,,,,,,,,,,,,,,,,,,,,,,,,,,,,,,,,,,,,,,,,42648,2022-09-21_10h16.19.302,vts_reward_expectancy_OFFLINE,2022.2.4,60.10703668737808,
0,0,0,1,0,1,0,0,star ,circle,2,0,2,0,1,0,12,10,,,,,,,,,,,,,,,,,,,,,,,,,,,,,,,,,,,,,,,,388.2610113330011,388.7448627949998,388.7448627949998,388.7448627949998,388.7448627949998,388.7448627949998,388.7448627949998,388.7448627949998,388.7448627949998,388.7448627949998,a,1.2081813160039019,10,517,2,389.9779036129985,391.47798551400047,,,,,,,,,,,,,,,,,,,,,,,,,,,,,,,,,,,,,,,,,,,,,,,,,,,,,,,,,,,,,,,,,,,,42648,2022-09-21_10h16.19.302,vts_reward_expectancy_OFFLINE,2022.2.4,60.10703668737808,
0,1,0,0,1,0,0,0,circle,triangle,2,0,2,0,1,1,13,3,,,,,,,,,,,,,,,,,,,,,,,,,,,,,,,,,,,,,,,,391.47798551400047,391.9633145810003,391.9633145810003,391.9633145810003,391.9633145810003,391.9633145810003,391.9633145810003,391.9633145810003,391.9633145810003,391.9633145810003,l,2.237551087993779,10,527,2,394.23191571299685,395.7327000469959,,,,,,,,,,,,,,,,,,,,,,,,,,,,,,,,,,,,,,,,,,,,,,,,,,,,,,,,,,,,,,,,,,,,42648,2022-09-21_10h16.19.302,vts_reward_expectancy_OFFLINE,2022.2.4,60.10703668737808,
1,0,0,0,0,0,1,0,triangle,hexagon,2,0,2,0,1,2,14,1,,,,,,,,,,,,,,,,,,,,,,,,,,,,,,,,,,,,,,,,395.7327000469959,396.21485240200127,396.21485240200127,396.21485240200127,396.21485240200127,396.21485240200127,396.21485240200127,396.21485240200127,396.21485240200127,396.21485240200127,a,2.1225263669984997,10,537,2,398.36922931700246,399.86879270699865,,,,,,,,,,,,,,,,,,,,,,,,,,,,,,,,,,,,,,,,,,,,,,,,,,,,,,,,,,,,,,,,,,,,42648,2022-09-21_10h16.19.302,vts_reward_expectancy_OFFLINE,2022.2.4,60.10703668737808,
1,0,0,0,0,1,0,0,triangle,circle,2,0,2,0,1,3,15,0,,,,,,,,,,,,,,,,,,,,,,,,,,,,,,,,,,,,,,,,399.86879270699865,400.36882914500165,400.36882914500165,400.36882914500165,400.36882914500165,400.36882914500165,400.36882914500165,400.36882914500165,400.36882914500165,400.36882914500165,a,1.1531898350003758,10,547,2,401.5531085409966,,,,,,,,,,,,,,,,,,,,,,,,,,,,,,,,,,,,,,,,,,,,,,,,,,,,,,,,,,,,,,,,,,,,,42648,2022-09-21_10h16.19.302,vts_reward_expectancy_OFFLINE,2022.2.4,60.10703668737808,
0,1,0,0,0,0,1,0,circle,hexagon,2,0,2,0,1,4,16,4,,,,,,,,,,,,,,,,,,,,,,,,,,,,,,,,,,,,,,,,403.0550861629963,403.53930278999906,403.53930278999906,403.53930278999906,403.53930278999906,403.53930278999906,403.53930278999906,403.53930278999906,403.53930278999906,403.53930278999906,a,1.7505392949969973,1,548,2,405.3089933539959,,,,,,,,,,,,,,,,,,,,,,,,,,,,,,,,,,,,,,,,,,,,,,,,,,,,,,,,,,,,,,,,,,,,,42648,2022-09-21_10h16.19.302,vts_reward_expectancy_OFFLINE,2022.2.4,60.10703668737808,
0,0,0,1,0,0,1,0,star,hexagon,2,0,2,0,1,5,17,11,,,,,,,,,,,,,,,,,,,,,,,,,,,,,,,,,,,,,,,,406.82210537199717,407.29107911699975,407.29107911699975,407.29107911699975,407.29107911699975,407.29107911699975,407.29107911699975,407.29107911699975,407.29107911699975,407.29107911699975,a,1.9429289379986585,1,549,2,409.2597559209971,410.76005818299745,,,,,,,,,,,,,,,,,,,,,,,,,,,,,,,,,,,,,,,,,,,,,,,,,,,,,,,,,,,,,,,,,,,,42648,2022-09-21_10h16.19.302,vts_reward_expectancy_OFFLINE,2022.2.4,60.10703668737808,
0,0,0,1,1,0,0,0,star,triangle,2,0,2,0,1,6,18,9,,,,,,,,,,,,,,,,,,,,,,,,,,,,,,,,,,,,,,,,410.76005818299745,411.24233651899704,411.24233651899704,411.24233651899704,411.24233651899704,411.24233651899704,411.24233651899704,411.24233651899704,411.24233651899704,411.24233651899704,l,1.1676536229933845,10,559,2,412.43033128500247,,,,,,,,,,,,,,,,,,,,,,,,,,,,,,,,,,,,,,,,,,,,,,,,,,,,,,,,,,,,,,,,,,,,,42648,2022-09-21_10h16.19.302,vts_reward_expectancy_OFFLINE,2022.2.4,60.10703668737808,
0,1,0,0,0,0,0,1,circle,star,2,0,2,0,1,7,19,5,,,,,,,,,,,,,,,,,,,,,,,,,,,,,,,,,,,,,,,,413.94608123099897,414.4130962290001,414.4130962290001,414.4130962290001,414.4130962290001,414.4130962290001,414.4130962290001,414.4130962290001,414.4130962290001,414.4130962290001,l,2.156952514000295,10,569,2,416.5972879120018,,,,,,,,,,,,,,,,,,,,,,,,,,,,,,,,,,,,,,,,,,,,,,,,,,,,,,,,,,,,,,,,,,,,,42648,2022-09-21_10h16.19.302,vts_reward_expectancy_OFFLINE,2022.2.4,60.10703668737808,
0,0,1,0,1,0,0,0,hexagon,triangle,2,0,2,0,1,8,20,6,,,,,,,,,,,,,,,,,,,,,,,,,,,,,,,,,,,,,,,,418.0986657169997,418.58295043699763,418.58295043699763,418.58295043699763,418.58295043699763,418.58295043699763,418.58295043699763,418.58295043699763,418.58295043699763,418.58295043699763,l,1.4593649669986917,10,579,2,420.0672837070015,421.5675590280007,,,,,,,,,,,,,,,,,,,,,,,,,,,,,,,,,,,,,,,,,,,,,,,,,,,,,,,,,,,,,,,,,,,,42648,2022-09-21_10h16.19.302,vts_reward_expectancy_OFFLINE,2022.2.4,60.10703668737808,
1,0,0,0,0,0,0,1,triangle,star,2,0,2,0,1,9,21,2,,,,,,,,,,,,,,,,,,,,,,,,,,,,,,,,,,,,,,,,421.5675590280007,422.05310385199846,422.05310385199846,422.05310385199846,422.05310385199846,422.05310385199846,422.05310385199846,422.05310385199846,422.05310385199846,422.05310385199846,a,1.3082581539929379,10,589,2,423.3862110409973,424.8861712479993,,,,,,,,,,,,,,,,,,,,,,,,,,,,,,,,,,,,,,,,,,,,,,,,,,,,,,,,,,,,,,,,,,,,42648,2022-09-21_10h16.19.302,vts_reward_expectancy_OFFLINE,2022.2.4,60.10703668737808,
0,0,1,0,0,0,0,1,hexagon,star,2,0,2,0,1,10,22,8,,,,,,,,,,,,,,,,,,,,,,,,,,,,,,,,,,,,,,,,424.8861712479993,425.3703053220015,425.3703053220015,425.3703053220015,425.3703053220015,425.3703053220015,425.3703053220015,425.3703053220015,425.3703053220015,425.3703053220015,l,2.238857028998609,10,599,2,427.6406413959994,429.14060870200046,,,,,,,,,,,,,,,,,,,,,,,,,,,,,,,,,,,,,,,,,,,,,,,,,,,,,,,,,,,,,,,,,,,,42648,2022-09-21_10h16.19.302,vts_reward_expectancy_OFFLINE,2022.2.4,60.10703668737808,
0,0,1,0,0,1,0,0,hexagon,circle,2,0,2,0,1,11,23,7,,,,,,,,,,,,,,,,,,,,,,,,,,,,,,,,,,,,,,,,429.14060870200046,429.640640368998,429.640640368998,429.640640368998,429.640640368998,429.640640368998,429.640640368998,429.640640368998,429.640640368998,429.640640368998,l,3.8329772080032853,1,600,2,433.49551431799773,,,,,,,,,,,,,,,,,,,,,,,,,,,,,,,,,,,,,,,,,,,,,,,,,,,,,,,,,,,,,,,,,,,,,42648,2022-09-21_10h16.19.302,vts_reward_expectancy_OFFLINE,2022.2.4,60.10703668737808,
0,0,1,0,0,1,0,0,hexagon,circle,2,0,2,0,2,0,24,7,,,,,,,,,,,,,,,,,,,,,,,,,,,,,,,,,,,,,,,,435.0113825160006,435.47764441899926,435.47764441899926,435.47764441899926,435.47764441899926,435.47764441899926,435.47764441899926,435.47764441899926,435.47764441899926,435.47764441899926,a,1.555501334994915,1,601,2,437.0630992919978,438.56327114899614,,,,,,,,,,,,,,,,,,,,,,,,,,,,,,,,,,,,,,,,,,,,,,,,,,,,,,,,,,,,,,,,,,,,42648,2022-09-21_10h16.19.302,vts_reward_expectancy_OFFLINE,2022.2.4,60.10703668737808,
1,0,0,0,0,0,0,1,triangle,star,2,0,2,0,2,1,25,2,,,,,,,,,,,,,,,,,,,,,,,,,,,,,,,,,,,,,,,,438.56327114899614,439.04783351299557,439.04783351299557,439.04783351299557,439.04783351299557,439.04783351299557,439.04783351299557,439.04783351299557,439.04783351299557,439.04783351299557,a,1.4739624929934507,1,602,2,440.5487091409959,,,,,,,,,,,,,,,,,,,,,,,,,,,,,,,,,,,,,,,,,,,,,,,,,,,,,,,,,,,,,,,,,,,,,42648,2022-09-21_10h16.19.302,vts_reward_expectancy_OFFLINE,2022.2.4,60.10703668737808,
0,1,0,0,0,0,0,1,circle,star,2,0,2,0,2,2,26,5,,,,,,,,,,,,,,,,,,,,,,,,,,,,,,,,,,,,,,,,442.04980060899834,442.5339830899975,442.5339830899975,442.5339830899975,442.5339830899975,442.5339830899975,442.5339830899975,442.5339830899975,442.5339830899975,442.5339830899975,l,3.339524562994484,10,612,2,445.90341572099715,,,,,,,,,,,,,,,,,,,,,,,,,,,,,,,,,,,,,,,,,,,,,,,,,,,,,,,,,,,,,,,,,,,,,42648,2022-09-21_10h16.19.302,vts_reward_expectancy_OFFLINE,2022.2.4,60.10703668737808,
0,0,1,0,1,0,0,0,hexagon,triangle,2,0,2,0,2,3,27,6,,,,,,,,,,,,,,,,,,,,,,,,,,,,,,,,,,,,,,,,447.4043210789969,447.8883039009961,447.8883039009961,447.8883039009961,447.8883039009961,447.8883039009961,447.8883039009961,447.8883039009961,447.8883039009961,447.8883039009961,l,1.504668577996199,10,622,2,449.4216515849985,450.92166546099907,,,,,,,,,,,,,,,,,,,,,,,,,,,,,,,,,,,,,,,,,,,,,,,,,,,,,,,,,,,,,,,,,,,,42648,2022-09-21_10h16.19.302,vts_reward_expectancy_OFFLINE,2022.2.4,60.10703668737808,
0,1,0,0,1,0,0,0,circle,triangle,2,0,2,0,2,4,28,3,,,,,,,,,,,,,,,,,,,,,,,,,,,,,,,,,,,,,,,,450.92166546099907,451.4049342829967,451.4049342829967,451.4049342829967,451.4049342829967,451.4049342829967,451.4049342829967,451.4049342829967,451.4049342829967,451.4049342829967,l,1.3005641989948344,1,623,2,452.7259791489996,454.22442483600025,,,,,,,,,,,,,,,,,,,,,,,,,,,,,,,,,,,,,,,,,,,,,,,,,,,,,,,,,,,,,,,,,,,,42648,2022-09-21_10h16.19.302,vts_reward_expectancy_OFFLINE,2022.2.4,60.10703668737808,
1,0,0,0,0,0,1,0,triangle,hexagon,2,0,2,0,2,5,29,1,,,,,,,,,,,,,,,,,,,,,,,,,,,,,,,,,,,,,,,,454.22442483600025,454.7085502549962,454.7085502549962,454.7085502549962,454.7085502549962,454.7085502549962,454.7085502549962,454.7085502549962,454.7085502549962,454.7085502549962,a,1.5574497869965853,10,633,2,456.29467351100175,,,,,,,,,,,,,,,,,,,,,,,,,,,,,,,,,,,,,,,,,,,,,,,,,,,,,,,,,,,,,,,,,,,,,42648,2022-09-21_10h16.19.302,vts_reward_expectancy_OFFLINE,2022.2.4,60.10703668737808,
0,0,1,0,0,0,0,1,hexagon,star,2,0,2,0,2,6,30,8,,,,,,,,,,,,,,,,,,,,,,,,,,,,,,,,,,,,,,,,457.79504227000143,458.27895584199723,458.27895584199723,458.27895584199723,458.27895584199723,458.27895584199723,458.27895584199723,458.27895584199723,458.27895584199723,458.27895584199723,a,1.978921026995522,1,634,2,460.281322265997,,,,,,,,,,,,,,,,,,,,,,,,,,,,,,,,,,,,,,,,,,,,,,,,,,,,,,,,,,,,,,,,,,,,,42648,2022-09-21_10h16.19.302,vts_reward_expectancy_OFFLINE,2022.2.4,60.10703668737808,
0,0,0,1,0,1,0,0,star ,circle,2,0,2,0,2,7,31,10,,,,,,,,,,,,,,,,,,,,,,,,,,,,,,,,,,,,,,,,461.7964549249955,462.2653114470013,462.2653114470013,462.2653114470013,462.2653114470013,462.2653114470013,462.2653114470013,462.2653114470013,462.2653114470013,462.2653114470013,a,3.8321827559993835,1,635,2,466.11747831999674,,,,,,,,,,,,,,,,,,,,,,,,,,,,,,,,,,,,,,,,,,,,,,,,,,,,,,,,,,,,,,,,,,,,,42648,2022-09-21_10h16.19.302,vts_reward_expectancy_OFFLINE,2022.2.4,60.10703668737808,
1,0,0,0,0,1,0,0,triangle,circle,2,0,2,0,2,8,32,0,,,,,,,,,,,,,,,,,,,,,,,,,,,,,,,,,,,,,,,,467.6179598910021,468.10240611300105,468.10240611300105,468.10240611300105,468.10240611300105,468.10240611300105,468.10240611300105,468.10240611300105,468.10240611300105,468.10240611300105,a,1.7545441309994203,10,645,2,469.887844208999,,,,,,,,,,,,,,,,,,,,,,,,,,,,,,,,,,,,,,,,,,,,,,,,,,,,,,,,,,,,,,,,,,,,,42648,2022-09-21_10h16.19.302,vts_reward_expectancy_OFFLINE,2022.2.4,60.10703668737808,
0,0,0,1,0,0,1,0,star,hexagon,2,0,2,0,2,9,33,11,,,,,,,,,,,,,,,,,,,,,,,,,,,,,,,,,,,,,,,,471.40347018800094,471.86956549299794,471.86956549299794,471.86956549299794,471.86956549299794,471.86956549299794,471.86956549299794,471.86956549299794,471.86956549299794,471.86956549299794,a,2.5954978500012658,10,655,2,474.4897737930005,475.9896334180012,,,,,,,,,,,,,,,,,,,,,,,,,,,,,,,,,,,,,,,,,,,,,,,,,,,,,,,,,,,,,,,,,,,,42648,2022-09-21_10h16.19.302,vts_reward_expectancy_OFFLINE,2022.2.4,60.10703668737808,
0,0,0,1,1,0,0,0,star,triangle,2,0,2,0,2,10,34,9,,,,,,,,,,,,,,,,,,,,,,,,,,,,,,,,,,,,,,,,475.9896334180012,476.4738069410014,476.4738069410014,476.4738069410014,476.4738069410014,476.4738069410014,476.4738069410014,476.4738069410014,476.4738069410014,476.4738069410014,l,2.6236873639936675,10,665,2,479.1264501569967,480.6264351630016,,,,,,,,,,,,,,,,,,,,,,,,,,,,,,,,,,,,,,,,,,,,,,,,,,,,,,,,,,,,,,,,,,,,42648,2022-09-21_10h16.19.302,vts_reward_expectancy_OFFLINE,2022.2.4,60.10703668737808,
0,1,0,0,0,0,1,0,circle,hexagon,2,0,2,0,2,11,35,4,,,,,,,,,,,,,,,,,,,,,,,,,,,,,,,,,,,,,,,,480.6264351630016,481.110648449001,481.110648449001,481.110648449001,481.110648449001,481.110648449001,481.110648449001,481.110648449001,481.110648449001,481.110648449001,a,2.49836756199511,1,666,2,483.6330436049975,,,,,,,,,,,,,,,,,,,,,,,,,,,,,,,,,,,,,,,,,,,,,,,,,,,,,,,,,,,,,,,,,,,,,42648,2022-09-21_10h16.19.302,vts_reward_expectancy_OFFLINE,2022.2.4,60.10703668737808,
,,,,,,,,,,,,,,,,,,0,0,0,0,0,0,0,0,,,,,,,,,,,,,,,,,,,,,,,,,,,,,,,,,,,,,,,,,,,,,,,,,160,U,star,0.0006837870023446158,491.4062607769956,491.90208898700075,493.3867580649967,493.3867580649967,493.3867580649967,496.387460938,496.387460938,496.387460938,0,0,None,0,496.4051655899966,,,,,,,,,,,,,,,,,,,,,,,,,,,,,,,,,,,,,,,,,,,,,,,,,,,42648,2022-09-21_10h16.19.302,vts_reward_expectancy_OFFLINE,2022.2.4,60.10703668737808,
,,,,,,,,,,,,,,,,,,0,0,0,0,1,0,1,0,,,,,,,,,,,,,,,,,,,,,,,,,,,,,,,,,,,,,,,,,,,,,,,,,146,W,hexagon,0.0064711070008343086,498.41228322499956,498.9081136980021,500.39147219400184,500.39147219400184,500.39147219400184,503.3936917839965,503.3936917839965,503.3936917839965,0,1,None,0,503.4116566149969,,,,,,,,,,,,,,,,,,,,,,,,,,,,,,,,,,,,,,,,,,,,,,,,,,,42648,2022-09-21_10h16.19.302,vts_reward_expectancy_OFFLINE,2022.2.4,60.10703668737808,
,,,,,,,,,,,,,,,,,,0,0,0,0,2,0,2,0,,,,,,,,,,,,,,,,,,,,,,,,,,,,,,,,,,,,,,,,,,,,,,,,,125,F,triangle,0.010060829998110421,505.41612122699735,505.91281316000095,507.3972371990021,507.3972371990021,507.3972371990021,,,,1,1,d,0,508.50095457000134,1.0759078379924176,,,,,,,,,,,,,,,,,,,,,,,,,,,,,,,,,,,,,,,,,,,,,,,,,,42648,2022-09-21_10h16.19.302,vts_reward_expectancy_OFFLINE,2022.2.4,60.10703668737808,
,,,,,,,,,,,,,,,,,,0,0,0,0,3,0,3,0,,,,,,,,,,,,,,,,,,,,,,,,,,,,,,,,,,,,,,,,,,,,,,,,,167,D,circle,0.01547707099962281,510.51998023699707,511.0157422679986,512.4848400019982,512.4848400019982,512.4848400019982,,,,0,0,d,0,513.7889024550022,1.284244142996613,,,,,,,,,,,,,,,,,,,,,,,,,,,,,,,,,,,,,,,,,,,,,,,,,,42648,2022-09-21_10h16.19.302,vts_reward_expectancy_OFFLINE,2022.2.4,60.10703668737808,
,,,,,,,,,,,,,,,,,,0,0,0,0,4,0,4,0,,,,,,,,,,,,,,,,,,,,,,,,,,,,,,,,,,,,,,,,,,,,,,,,,139,H,circle,0.015979934003553353,515.8070860649968,516.3037064699965,517.7712787519995,517.7712787519995,517.7712787519995,520.7722771589979,520.7722771589979,520.7722771589979,0,1,None,0,520.7901601039994,,,,,,,,,,,,,,,,,,,,,,,,,,,,,,,,,,,,,,,,,,,,,,,,,,,42648,2022-09-21_10h16.19.302,vts_reward_expectancy_OFFLINE,2022.2.4,60.10703668737808,
,,,,,,,,,,,,,,,,,,0,0,0,0,5,0,5,0,,,,,,,,,,,,,,,,,,,,,,,,,,,,,,,,,,,,,,,,,,,,,,,,,132,S,hexagon,0.005984896000882145,522.797429678998,523.2930313100005,524.7767595479963,524.7767595479963,524.7767595479963,527.7784706890016,527.7784706890016,527.7784706890016,0,1,None,0,527.7963549510023,,,,,,,,,,,,,,,,,,,,,,,,,,,,,,,,,,,,,,,,,,,,,,,,,,,42648,2022-09-21_10h16.19.302,vts_reward_expectancy_OFFLINE,2022.2.4,60.10703668737808,
,,,,,,,,,,,,,,,,,,0,0,0,0,6,0,6,0,,,,,,,,,,,,,,,,,,,,,,,,,,,,,,,,,,,,,,,,,,,,,,,,,174,B,star,0.009271650000300724,529.8007627479965,530.2967290789966,531.7808914339985,531.7808914339985,531.7808914339985,534.7839891539988,534.7839891539988,534.7839891539988,0,1,None,0,534.8001081539987,,,,,,,,,,,,,,,,,,,,,,,,,,,,,,,,,,,,,,,,,,,,,,,,,,,42648,2022-09-21_10h16.19.302,vts_reward_expectancy_OFFLINE,2022.2.4,60.10703668737808,
,,,,,,,,,,,,,,,,,,0,0,0,0,7,0,7,0,,,,,,,,,,,,,,,,,,,,,,,,,,,,,,,,,,,,,,,,,,,,,,,,,181,Y,triangle,0.014529929001582786,536.8066194959974,537.3037104780014,538.7705065459959,538.7705065459959,538.7705065459959,541.771082583,541.771082583,541.771082583,0,1,None,0,541.7871584309978,,,,,,,,,,,,,,,,,,,,,,,,,,,,,,,,,,,,,,,,,,,,,,,,,,,42648,2022-09-21_10h16.19.302,vts_reward_expectancy_OFFLINE,2022.2.4,60.10703668737808,
,,,,,,,,,,,,,,,,,,0,0,0,0,8,0,8,0,,,,,,,,,,,,,,,,,,,,,,,,,,,,,,,,,,,,,,,,,,,,,,,,,160,U,hexagon,0.003054271001019515,543.7941056830023,544.2901852270006,545.7746786360003,545.7746786360003,545.7746786360003,548.776756539999,548.776756539999,548.776756539999,0,1,None,0,548.7944493609975,,,,,,,,,,,,,,,,,,,,,,,,,,,,,,,,,,,,,,,,,,,,,,,,,,,42648,2022-09-21_10h16.19.302,vts_reward_expectancy_OFFLINE,2022.2.4,60.10703668737808,
,,,,,,,,,,,,,,,,,,0,0,0,0,9,0,9,0,,,,,,,,,,,,,,,,,,,,,,,,,,,,,,,,,,,,,,,,,,,,,,,,,146,W,star,0.007078330003423616,550.7991029080003,551.2943214499974,552.7800245639955,552.7800245639955,552.7800245639955,555.7812294949981,555.7812294949981,555.7812294949981,0,1,None,0,555.7990280939994,,,,,,,,,,,,,,,,,,,,,,,,,,,,,,,,,,,,,,,,,,,,,,,,,,,42648,2022-09-21_10h16.19.302,vts_reward_expectancy_OFFLINE,2022.2.4,60.10703668737808,
,,,,,,,,,,,,,,,,,,1,0,1,0,0,0,0,0,,,,,,,,,,,,,,,,,,,,,,,,,,,,,,,,,,,,,,,,,,,,,,,,,139,F,hexagon,0.002273255006002728,588.860273430997,589.3579536559992,590.8411150030006,590.8411150030006,590.8411150030006,,,,1,1,d,1,591.5107823989965,0.6400037559942575,,,,,,,,,,,,,,,,,,,,,,,,,,,,,,,,,,,,,,,,,,,,,,,,,,42648,2022-09-21_10h16.19.302,vts_reward_expectancy_OFFLINE,2022.2.4,60.10703668737808,
,,,,,,,,,,,,,,,,,,1,0,1,0,1,0,1,0,,,,,,,,,,,,,,,,,,,,,,,,,,,,,,,,,,,,,,,,,,,,,,,,,146,H,circle,0.0011621380035649054,593.5135964930014,594.0103382390007,595.4939665560014,595.4939665560014,595.4939665560014,,,,1,0,d,1,596.1457396530022,0.6277564449992497,,,,,,,,,,,,,,,,,,,,,,,,,,,,,,,,,,,,,,,,,,,,,,,,,,42648,2022-09-21_10h16.19.302,vts_reward_expectancy_OFFLINE,2022.2.4,60.10703668737808,
,,,,,,,,,,,,,,,,,,1,0,1,0,2,0,2,0,,,,,,,,,,,,,,,,,,,,,,,,,,,,,,,,,,,,,,,,,,,,,,,,,132,Y,star,0.0006184510057209991,598.1505190050011,598.6471679109964,600.130809698996,600.130809698996,600.130809698996,,,,1,0,d,1,600.6834745419983,0.5263313760005985,602.1839165790007,,,,,,,,,,,,,,,,,,,,,,,,,,,,,,,,,,,,,,,,,,,,,,,,,42648,2022-09-21_10h16.19.302,vts_reward_expectancy_OFFLINE,2022.2.4,60.10703668737808,
,,,,,,,,,,,,,,,,,,1,0,1,0,3,0,3,0,,,,,,,,,,,,,,,,,,,,,,,,,,,,,,,,,,,,,,,,,,,,,,,,,167,W,triangle,0.0002025279973167926,602.6870965929993,603.1835806189993,604.6676926360014,604.6676926360014,604.6676926360014,,,,1,0,f,1,605.4191515650018,0.7260972439980833,606.9188265580015,,,,,,,,,,,,,,,,,,,,,,,,,,,,,,,,,,,,,,,,,,,,,,,,,42648,2022-09-21_10h16.19.302,vts_reward_expectancy_OFFLINE,2022.2.4,60.10703668737808,
,,,,,,,,,,,,,,,,,,1,0,1,0,4,0,4,0,,,,,,,,,,,,,,,,,,,,,,,,,,,,,,,,,,,,,,,,,,,,,,,,,160,B,hexagon,0.0004040809944854118,607.4250758159978,607.9219250039969,609.4049773219958,609.4049773219958,609.4049773219958,,,,1,0,f,1,609.9553532049977,0.5254754600027809,,,,,,,,,,,,,,,,,,,,,,,,,,,,,,,,,,,,,,,,,,,,,,,,,,42648,2022-09-21_10h16.19.302,vts_reward_expectancy_OFFLINE,2022.2.4,60.10703668737808,
,,,,,,,,,,,,,,,,,,1,0,1,0,5,0,5,0,,,,,,,,,,,,,,,,,,,,,,,,,,,,,,,,,,,,,,,,,,,,,,,,,181,U,circle,0.0011872350005432963,611.9602569529961,612.4579827549969,613.9418714740023,613.9418714740023,613.9418714740023,,,,1,0,f,1,614.5251140670007,0.564237441001751,616.0249559820004,,,,,,,,,,,,,,,,,,,,,,,,,,,,,,,,,,,,,,,,,,,,,,,,,42648,2022-09-21_10h16.19.302,vts_reward_expectancy_OFFLINE,2022.2.4,60.10703668737808,
,,,,,,,,,,,,,,,,,,1,0,1,0,6,0,6,0,,,,,,,,,,,,,,,,,,,,,,,,,,,,,,,,,,,,,,,,,,,,,,,,,125,S,star,0.00020435699843801558,616.5301575440026,617.0326102569961,618.5119778029984,618.5119778029984,618.5119778029984,,,,1,0,d,1,619.1805683389975,0.6494507210009033,,,,,,,,,,,,,,,,,,,,,,,,,,,,,,,,,,,,,,,,,,,,,,,,,,42648,2022-09-21_10h16.19.302,vts_reward_expectancy_OFFLINE,2022.2.4,60.10703668737808,
,,,,,,,,,,,,,,,,,,1,0,1,0,7,0,7,0,,,,,,,,,,,,,,,,,,,,,,,,,,,,,,,,,,,,,,,,,,,,,,,,,174,D,triangle,0.0158613849998801,621.200366006,621.6956403669974,623.1652580860027,623.1652580860027,623.1652580860027,,,,1,0,f,1,623.9669801359996,0.7803950449961121,625.4658836000017,,,,,,,,,,,,,,,,,,,,,,,,,,,,,,,,,,,,,,,,,,,,,,,,,42648,2022-09-21_10h16.19.302,vts_reward_expectancy_OFFLINE,2022.2.4,60.10703668737808,
,,,,,,,,,,,,,,,,,,1,0,1,0,8,0,8,0,,,,,,,,,,,,,,,,,,,,,,,,,,,,,,,,,,,,,,,,,,,,,,,,,139,F,hexagon,0.00019391100067878142,625.9723123049989,626.4822427399995,627.9512441999977,627.9512441999977,627.9512441999977,,,,1,0,d,1,628.5367656919989,0.5627369720023125,630.0361087049969,,,,,,,,,,,,,,,,,,,,,,,,,,,,,,,,,,,,,,,,,,,,,,,,,42648,2022-09-21_10h16.19.302,vts_reward_expectancy_OFFLINE,2022.2.4,60.10703668737808,
,,,,,,,,,,,,,,,,,,1,0,1,0,9,0,9,0,,,,,,,,,,,,,,,,,,,,,,,,,,,,,,,,,,,,,,,,,,,,,,,,,146,H,star,0.00014335999730974436,630.5416502660009,631.0367645189981,632.522090849001,632.522090849001,632.522090849001,,,,1,0,d,1,633.1222868260011,0.5670379660004983,634.6293676990026,,,,,,,,,,,,,,,,,,,,,,,,,,,,,,,,,,,,,,,,,,,,,,,,,42648,2022-09-21_10h16.19.302,vts_reward_expectancy_OFFLINE,2022.2.4,60.10703668737808,
,,,,,,,,,,,,,,,,,,,,,,,,,,0,0,0,0,0,0,0,0,,,,,,,,,,,,,,,,,,,,,,,,,,,,,,,,,,,,,,,,,160,U,triangle,0.003524040999764111,664.3822014929974,,,,,,,,1,0,,2,667.2314533550016,,,664.8774871049973,666.3619670819971,666.3619670819971,666.3619670819971,k,0.8395639150039642,,,,,,,,,,,,,,,,,,,,,,,,,,,,,,,,,,,,,,,,,,,42648,2022-09-21_10h16.19.302,vts_reward_expectancy_OFFLINE,2022.2.4,60.10703668737808,
,,,,,,,,,,,,,,,,,,,,,,,,,,0,0,0,0,1,0,1,0,,,,,,,,,,,,,,,,,,,,,,,,,,,,,,,,,,,,,,,,,167,Y,circle,0.018054665000818204,669.2539911349959,,,,,,,,1,0,,2,671.8991062130008,,,669.7484770480005,671.2147655079971,671.2147655079971,671.2147655079971,k,0.6509438540015253,,,,,,,,,,,,,,,,,,,,,,,,,,,,,,,,,,,,,,,,,,,42648,2022-09-21_10h16.19.302,vts_reward_expectancy_OFFLINE,2022.2.4,60.10703668737808,
,,,,,,,,,,,,,,,,,,,,,,,,,,0,0,0,0,2,0,2,0,,,,,,,,,,,,,,,,,,,,,,,,,,,,,,,,,,,,,,,,,174,W,star,0.0006152770001790486,673.9051499319976,,,,,,,,1,0,,2,676.7861585040009,,678.2889782979983,674.4013584639979,675.885791793,675.885791793,675.885791793,k,0.8674516390019562,,,,,,,,,,,,,,,,,,,,,,,,,,,,,,,,,,,,,,,,,,,42648,2022-09-21_10h16.19.302,vts_reward_expectancy_OFFLINE,2022.2.4,60.10703668737808,
,,,,,,,,,,,,,,,,,,,,,,,,,,0,0,0,0,3,0,3,0,,,,,,,,,,,,,,,,,,,,,,,,,,,,,,,,,,,,,,,,,139,H,hexagon,0.00035095700150122866,678.7921927849966,,,,,,,,1,0,,2,681.6900958780025,,,679.288184236997,680.7728851970023,680.7728851970023,680.7728851970023,j,0.8842411579971667,,,,,,,,,,,,,,,,,,,,,,,,,,,,,,,,,,,,,,,,,,,42648,2022-09-21_10h16.19.302,vts_reward_expectancy_OFFLINE,2022.2.4,60.10703668737808,
,,,,,,,,,,,,,,,,,,,,,,,,,,0,0,0,0,4,0,4,0,,,,,,,,,,,,,,,,,,,,,,,,,,,,,,,,,,,,,,,,,132,D,hexagon,0.0014729069953318685,683.6960920400015,,,,,,,,1,0,,2,686.4100922299986,,,684.1919725379994,685.676267584,685.676267584,685.676267584,j,0.7008869349956512,,,,,,,,,,,,,,,,,,,,,,,,,,,,,,,,,,,,,,,,,,,42648,2022-09-21_10h16.19.302,vts_reward_expectancy_OFFLINE,2022.2.4,60.10703668737808,
,,,,,,,,,,,,,,,,,,,,,,,,,,0,0,0,0,5,0,5,0,,,,,,,,,,,,,,,,,,,,,,,,,,,,,,,,,,,,,,,,,146,S,star,0.002105227002175525,688.4180275079998,,,,,,,,1,0,,2,691.1144738959993,,,688.9125513339968,690.3970712730006,690.3970712730006,690.3970712730006,k,0.6849947840019013,,,,,,,,,,,,,,,,,,,,,,,,,,,,,,,,,,,,,,,,,,,42648,2022-09-21_10h16.19.302,vts_reward_expectancy_OFFLINE,2022.2.4,60.10703668737808,
,,,,,,,,,,,,,,,,,,,,,,,,,,0,0,0,0,6,0,6,0,,,,,,,,,,,,,,,,,,,,,,,,,,,,,,,,,,,,,,,,,181,B,triangle,0.0007648250029888004,693.1227398120027,,,,,,,,1,0,,2,695.7675630340018,,,693.6164309059968,695.099173098999,695.099173098999,695.099173098999,j,0.64595489599742,,,,,,,,,,,,,,,,,,,,,,,,,,,,,,,,,,,,,,,,,,,42648,2022-09-21_10h16.19.302,vts_reward_expectancy_OFFLINE,2022.2.4,60.10703668737808,
,,,,,,,,,,,,,,,,,,,,,,,,,,0,0,0,0,7,0,7,0,,,,,,,,,,,,,,,,,,,,,,,,,,,,,,,,,,,,,,,,,125,F,circle,0.0033705429959809408,697.774672915999,,,,,,,,1,0,,2,700.7216593289995,,,698.2698939269976,699.7540975219963,699.7540975219963,699.7540975219963,j,0.9434803480035043,,,,,,,,,,,,,,,,,,,,,,,,,,,,,,,,,,,,,,,,,,,42648,2022-09-21_10h16.19.302,vts_reward_expectancy_OFFLINE,2022.2.4,60.10703668737808,
,,,,,,,,,,,,,,,,,,,,,,,,,,0,0,0,0,8,0,8,0,,,,,,,,,,,,,,,,,,,,,,,,,,,,,,,,,,,,,,,,,160,U,circle,0.0008491849948768504,702.7265803799964,,,,,,,,1,0,,2,706.0235778380011,,707.5267371219961,703.2223311490015,704.7071786239976,704.7071786239976,704.7071786239976,k,1.285777274002612,,,,,,,,,,,,,,,,,,,,,,,,,,,,,,,,,,,,,,,,,,,42648,2022-09-21_10h16.19.302,vts_reward_expectancy_OFFLINE,2022.2.4,60.10703668737808,
,,,,,,,,,,,,,,,,,,,,,,,,,,0,0,0,0,9,0,9,0,,,,,,,,,,,,,,,,,,,,,,,,,,,,,,,,,,,,,,,,,167,Y,triangle,0.0003735430000233464,708.0327993710016,,,,,,,,1,0,,2,710.9447187479964,,,708.5272902470024,710.0114385790002,710.0114385790002,710.0114385790002,k,0.910112694997224,,,,,,,,,,,,,,,,,,,,,,,,,,,,,,,,,,,,,,,,,,,42648,2022-09-21_10h16.19.302,vts_reward_expectancy_OFFLINE,2022.2.4,60.10703668737808,
,,,,,,,,,,,,,,,,,,,,,,,,,,,,,,,,,,0,0,0,0,0,0,0,0,,,,,,,,,,,,,,,,,,,,,,,,,,,,0,666,,,,146,F,circle,0.014007516998390201,769.8581334440023,,,,,,,,1,0,,3,,,,,,,,,,770.3571665630006,770.3571665630006,770.3571665630006,770.3571665630006,771.8384755849984,771.8384755849984,771.8384755849984,771.8384755849984,771.8723243299974,771.8723243299974,771.8723243299974,771.8723243299974,-1,number,NA,d,1.0991101070030709,vtsPrac,772.9604390570021,,,,,,,,,,,,,,,,,,,,,,,,42648,2022-09-21_10h16.19.302,vts_reward_expectancy_OFFLINE,2022.2.4,60.10703668737808,
,,,,,,,,,,,,,,,,,,,,,,,,,,,,,,,,,,0,0,0,0,1,0,1,0,,,,,,,,,,,,,,,,,,,,,,,,,,,,0,666,,,,132,B,star,0.01781076400220627,774.9798410910007,,,,,,,,1,0,,3,,,,,,,,,,775.4597939980013,775.4597939980013,775.4597939980013,775.4597939980013,776.9412344809971,776.9412344809971,776.9412344809971,776.9412344809971,776.975567841997,776.975567841997,776.975567841997,776.975567841997,repeat,number,numRpt,d,0.7557284149952466,vtsPrac,777.7286289339972,,,,,,,,,,,,,,,,,,,,,,,,42648,2022-09-21_10h16.19.302,vts_reward_expectancy_OFFLINE,2022.2.4,60.10703668737808,
,,,,,,,,,,,,,,,,,,,,,,,,,,,,,,,,,,0,0,0,0,2,0,2,0,,,,,,,,,,,,,,,,,,,,,,,,,,,,0,666,,,,174,U,triangle,0.017850355005066376,779.7511044119965,,,,,,,,1,0,,3,,,,,,,,,,780.2475636050003,780.2475636050003,780.2475636050003,780.2475636050003,781.7115777559957,781.7115777559957,781.7115777559957,781.7115777559957,781.7616326220013,781.7616326220013,781.7616326220013,781.7616326220013,switch,letter,lettSwt,k,0.6419206079954165,vtsPrac,782.3829404159987,,,,,,,,,,,,,,,,,,,,,,,,42648,2022-09-21_10h16.19.302,vts_reward_expectancy_OFFLINE,2022.2.4,60.10703668737808,
,,,,,,,,,,,,,,,,,,,,,,,,,,,,,,,,,,0,0,0,0,3,0,3,0,,,,,,,,,,,,,,,,,,,,,,,,,,,,0,666,,,,125,D,star,0.016574191002291627,784.4024664710014,,,,,,,,1,0,,3,,,,,,,,,,784.8847504680016,784.8847504680016,784.8847504680016,784.8847504680016,786.3664000939971,786.3664000939971,786.3664000939971,786.3664000939971,786.3984375520013,786.3984375520013,786.3984375520013,786.3984375520013,repeat,letter,lettRpt,j,0.531242277000274,vtsPrac,786.9172296569959,,,,,,,,,,,,,,,,,,,,,,,,42648,2022-09-21_10h16.19.302,vts_reward_expectancy_OFFLINE,2022.2.4,60.10703668737808,
,,,,,,,,,,,,,,,,,,,,,,,,,,,,,,,,,,0,0,0,0,4,0,4,0,,,,,,,,,,,,,,,,,,,,,,,,,,,,0,666,,,,146,F,star,0.0024140460009220988,788.9224540750001,,,,,,,,1,0,,3,,,,,,,,,,789.4184106199973,789.4184106199973,789.4184106199973,789.4184106199973,790.9028168779987,790.9028168779987,790.9028168779987,790.9028168779987,790.9185701739989,790.9185701739989,790.9185701739989,790.9185701739989,switch,number,numSwt,d,1.5782151280000107,vtsPrac,792.5054408799988,794.0048423639964,,,,,,,,,,,,,,,,,,,,,,,42648,2022-09-21_10h16.19.302,vts_reward_expectancy_OFFLINE,2022.2.4,60.10703668737808,
,,,,,,,,,,,,,,,,,,,,,,,,,,,,,,,,,,0,0,0,0,5,0,5,0,,,,,,,,,,,,,,,,,,,,,,,,,,,,0,666,,,,132,B,hexagon,0.0004573949991026893,794.5098387519974,,,,,,,,1,0,,3,,,,,,,,,,795.0058710289959,795.0058710289959,795.0058710289959,795.0058710289959,796.489682034,796.489682034,796.489682034,796.489682034,796.5058866830004,796.5058866830004,796.5058866830004,796.5058866830004,repeat,number,numRpt,d,0.44044688199210213,vtsPrac,796.9574618979968,,,,,,,,,,,,,,,,,,,,,,,,42648,2022-09-21_10h16.19.302,vts_reward_expectancy_OFFLINE,2022.2.4,60.10703668737808,
,,,,,,,,,,,,,,,,,,,,,,,,,,,,,,,,,,0,0,0,0,6,0,6,0,,,,,,,,,,,,,,,,,,,,,,,,,,,,0,666,,,,174,U,triangle,0.002100607998727355,798.9649822369975,,,,,,,,1,0,,3,,,,,,,,,,799.4600944869962,799.4600944869962,799.4600944869962,799.4600944869962,800.943608884998,800.943608884998,800.943608884998,800.943608884998,800.9599649119991,800.9599649119991,800.9599649119991,800.9599649119991,switch,letter,lettSwt,k,0.8099337080057012,vtsPrac,801.7774080460003,,,,,,,,,,,,,,,,,,,,,,,,42648,2022-09-21_10h16.19.302,vts_reward_expectancy_OFFLINE,2022.2.4,60.10703668737808,
,,,,,,,,,,,,,,,,,,,,,,,,,,,,,,,,,,0,0,0,0,7,0,7,0,,,,,,,,,,,,,,,,,,,,,,,,,,,,0,666,,,,125,D,circle,0.0013893219947931357,803.7833537019978,,,,,,,,1,0,,3,,,,,,,,,,804.2795323050013,804.2795323050013,804.2795323050013,804.2795323050013,805.7631055370002,805.7631055370002,805.7631055370002,805.7631055370002,805.779401587999,805.779401587999,805.779401587999,805.779401587999,repeat,letter,lettRpt,j,0.5984055419976357,vtsPrac,806.3809640420004,,,,,,,,,,,,,,,,,,,,,,,,42648,2022-09-21_10h16.19.302,vts_reward_expectancy_OFFLINE,2022.2.4,60.10703668737808,
,,,,,,,,,,,,,,,,,,,,,,,,,,,,,,,,,,0,0,0,0,8,0,8,0,,,,,,,,,,,,,,,,,,,,,,,,,,,,0,666,,,,139,U,star,0.0008049800017033704,808.3868863519965,,,,,,,,1,0,,3,,,,,,,,,,808.8830993469965,808.8830993469965,808.8830993469965,808.8830993469965,810.3670877549957,810.3670877549957,810.3670877549957,810.3670877549957,810.3828456440024,810.3828456440024,810.3828456440024,810.3828456440024,repeat,letter,lettRpt,k,1.2740085749974241,vtsPrac,811.6691710640007,,,,,,,,,,,,,,,,,,,,,,,,42648,2022-09-21_10h16.19.302,vts_reward_expectancy_OFFLINE,2022.2.4,60.10703668737808,
,,,,,,,,,,,,,,,,,,,,,,,,,,,,,,,,,,0,0,0,0,9,0,9,0,,,,,,,,,,,,,,,,,,,,,,,,,,,,0,666,,,,174,Y,triangle,0.0009628620027797297,813.6738881790006,,,,,,,,1,0,,3,,,,,,,,,,814.1703470240027,814.1703470240027,814.1703470240027,814.1703470240027,815.6543104070006,815.6543104070006,815.6543104070006,815.6543104070006,815.6699868249998,815.6699868249998,815.6699868249998,815.6699868249998,repeat,letter,lettRpt,k,0.6594689749981626,vtsPrac,816.3384711979961,,,,,,,,,,,,,,,,,,,,,,,,42648,2022-09-21_10h16.19.302,vts_reward_expectancy_OFFLINE,2022.2.4,60.10703668737808,
,,,,,,,,,,,,,,,,,,,,,,,,,,,,,,,,,,0,0,0,0,10,0,10,0,,,,,,,,,,,,,,,,,,,,,,,,,,,,0,666,,,,181,W,hexagon,0.002582402004918549,818.3441516649982,,,,,,,,1,0,,3,,,,,,,,,,818.8409209839956,818.8409209839956,818.8409209839956,818.8409209839956,820.3243279629969,820.3243279629969,820.3243279629969,820.3243279629969,820.3403625919964,820.3403625919964,820.3403625919964,820.3403625919964,switch,number,numSwt,f,0.6531698850012617,vtsPrac,821.0085851799959,,,,,,,,,,,,,,,,,,,,,,,,42648,2022-09-21_10h16.19.302,vts_reward_expectancy_OFFLINE,2022.2.4,60.10703668737808,
,,,,,,,,,,,,,,,,,,,,,,,,,,,,,,,,,,0,0,0,0,11,0,11,0,,,,,,,,,,,,,,,,,,,,,,,,,,,,0,666,,,,160,S,circle,0.0026845239990507253,823.0157718580012,,,,,,,,1,0,,3,,,,,,,,,,823.5127224509997,823.5127224509997,823.5127224509997,823.5127224509997,824.9946991269971,824.9946991269971,824.9946991269971,824.9946991269971,825.0271738629963,825.0271738629963,825.0271738629963,825.0271738629963,repeat,number,numRpt,f,0.8793263280022074,vtsPrac,825.8960164739983,,,,,,,,,,,,,,,,,,,,,,,,42648,2022-09-21_10h16.19.302,vts_reward_expectancy_OFFLINE,2022.2.4,60.10703668737808,
,,,,,,,,,,,,,,,,,,,,,,,,,,,,,,,,,,0,0,0,0,12,0,12,0,,,,,,,,,,,,,,,,,,,,,,,,,,,,0,666,,,,167,S,circle,0.0025084029985009693,827.9011857910009,,,,,,,,1,0,,3,,,,,,,,,,828.3969103779964,828.3969103779964,828.3969103779964,828.3969103779964,829.881547662997,829.881547662997,829.881547662997,829.881547662997,829.8971897250012,829.8971897250012,829.8971897250012,829.8971897250012,repeat,number,numRpt,f,0.5755042870005127,vtsPrac,830.4830264799966,831.9821867089995,,,,,,,,,,,,,,,,,,,,,,,42648,2022-09-21_10h16.19.302,vts_reward_expectancy_OFFLINE,2022.2.4,60.10703668737808,
,,,,,,,,,,,,,,,,,,,,,,,,,,,,,,,,,,0,0,0,0,13,0,13,0,,,,,,,,,,,,,,,,,,,,,,,,,,,,0,666,,,,125,U,hexagon,0.0007345619960688055,832.4889700970016,,,,,,,,1,0,,3,,,,,,,,,,832.9849530459978,832.9849530459978,832.9849530459978,832.9849530459978,834.4686404500026,834.4686404500026,834.4686404500026,834.4686404500026,834.4849928149997,834.4849928149997,834.4849928149997,834.4849928149997,repeat,number,numRpt,d,0.6284639820005395,vtsPrac,835.1192807280022,,,,,,,,,,,,,,,,,,,,,,,,42648,2022-09-21_10h16.19.302,vts_reward_expectancy_OFFLINE,2022.2.4,60.10703668737808,
,,,,,,,,,,,,,,,,,,,,,,,,,,,,,,,,,,0,0,0,0,14,0,14,0,,,,,,,,,,,,,,,,,,,,,,,,,,,,0,666,,,,139,B,hexagon,0.018315783003345132,837.141814165996,,,,,,,,1,0,,3,,,,,,,,,,837.6220973059972,837.6220973059972,837.6220973059972,837.6220973059972,839.105334357002,839.105334357002,839.105334357002,839.105334357002,839.1214333140015,839.1214333140015,839.1214333140015,839.1214333140015,switch,letter,lettSwt,j,0.6324739039991982,vtsPrac,839.7565052169957,,,,,,,,,,,,,,,,,,,,,,,,42648,2022-09-21_10h16.19.302,vts_reward_expectancy_OFFLINE,2022.2.4,60.10703668737808,
,,,,,,,,,,,,,,,,,,,,,,,,,,,,,,,,,,0,0,0,0,15,0,15,0,,,,,,,,,,,,,,,,,,,,,,,,,,,,0,666,,,,181,W,star,0.017451389001507778,841.7787442940025,,,,,,,,1,0,,3,,,,,,,,,,842.257721629001,842.257721629001,842.257721629001,842.257721629001,843.742092061002,843.742092061002,843.742092061002,843.742092061002,843.7579566549975,843.7579566549975,843.7579566549975,843.7579566549975,repeat,letter,lettRpt,k,0.8589591349955299,vtsPrac,844.626628375001,,,,,,,,,,,,,,,,,,,,,,,,42648,2022-09-21_10h16.19.302,vts_reward_expectancy_OFFLINE,2022.2.4,60.10703668737808,
,,,,,,,,,,,,,,,,,,,,,,,,,,,,,,,,,,,,,,,,,,0,0,0,0,,,,,,,,,,,,,,,,,,,,,,,,0,666,,,,125,D,circle,0.001000573996861931,880.1552274580026,,,,,,,,1,0,,,,,,,,,,,,880.6509717930021,880.6509717930021,880.6509717930021,880.6509717930021,882.1353456069992,882.1353456069992,882.1353456069992,882.1353456069992,882.1511898980025,882.1511898980025,882.1511898980025,882.1511898980025,switch,number,numSwt,d,0.7945954969982267,noRew,,,0,882.9579313229988,,,,,,,,,,,,,,,,,,,,,42648,2022-09-21_10h16.19.302,vts_reward_expectancy_OFFLINE,2022.2.4,60.10703668737808,
,,,,,,,,,,,,,,,,,,,,,,,,,,,,,,,,,,,,,,,,,,1,0,1,0,,,,,,,,,,,,,,,,,,,,,,,,0,666,,,,181,B,triangle,0.016073139995569363,884.9755401579969,,,,,,,,1,0,,,,,,,,,,,,885.4716807110017,885.4716807110017,885.4716807110017,885.4716807110017,886.9555417469965,886.9555417469965,886.9555417469965,886.9555417469965,886.9712885170011,886.9712885170011,886.9712885170011,886.9712885170011,switch,letter,lettSwt,j,0.869434228996397,noRew,,,0,887.8579758999986,889.3585157229973,,,,,,,,,,,,,,,,,,,,42648,2022-09-21_10h16.19.302,vts_reward_expectancy_OFFLINE,2022.2.4,60.10703668737808,
,,,,,,,,,,,,,,,,,,,,,,,,,,,,,,,,,,,,,,,,,,2,0,2,0,,,,,,,,,,,,,,,,,,,,,,,,0,666,,,,139,Y,star,0.0160570829975768,889.880256698998,,,,,,,,1,0,,,,,,,,,,,,890.3759155799999,890.3759155799999,890.3759155799999,890.3759155799999,891.8414500660001,891.8414500660001,891.8414500660001,891.8414500660001,891.8754884349983,891.8754884349983,891.8754884349983,891.8754884349983,switch,number,numSwt,d,0.7356582270003855,noRew,,,0,892.595969629001,,,,,,,,,,,,,,,,,,,,,42648,2022-09-21_10h16.19.302,vts_reward_expectancy_OFFLINE,2022.2.4,60.10703668737808,
,,,,,,,,,,,,,,,,,,,,,,,,,,,,,,,,,,,,,,,,,,3,0,3,0,,,,,,,,,,,,,,,,,,,,,,,,0,666,,,,174,W,hexagon,0.01762492099805968,894.6175003089957,,,,,,,,1,0,,,,,,,,,,,,895.0948099169982,895.0948099169982,895.0948099169982,895.0948099169982,896.5794380520019,896.5794380520019,896.5794380520019,896.5794380520019,896.5952211870026,896.5952211870026,896.5952211870026,896.5952211870026,switch,letter,lettSwt,k,0.7500810609999462,noRew,,,0,897.349338961998,,,,,,,,,,,,,,,,,,,,,42648,2022-09-21_10h16.19.302,vts_reward_expectancy_OFFLINE,2022.2.4,60.10703668737808,
,,,,,,,,,,,,,,,,,,,,,,,,,,,,,,,,,,,,,,,,,,4,0,4,0,,,,,,,,,,,,,,,,,,,,,,,,0,666,,,,125,D,triangle,0.01783735899516614,899.3710712469983,,,,,,,,1,0,,,,,,,,,,,,899.8663657259967,899.8663657259967,899.8663657259967,899.8663657259967,901.3319901970026,901.3319901970026,901.3319901970026,901.3319901970026,901.3662629710016,901.3662629710016,901.3662629710016,901.3662629710016,switch,number,numSwt,d,1.0621655650029425,noRew,,,0,902.4201057640021,,,,,,,,,,,,,,,,,,,,,42648,2022-09-21_10h16.19.302,vts_reward_expectancy_OFFLINE,2022.2.4,60.10703668737808,
,,,,,,,,,,,,,,,,,,,,,,,,,,,,,,,,,,,,,,,,,,5,0,5,0,,,,,,,,,,,,,,,,,,,,,,,,0,666,,,,181,B,hexagon,0.017274764999456238,904.4413085529959,,,,,,,,1,0,,,,,,,,,,,,904.9189160509995,904.9189160509995,904.9189160509995,904.9189160509995,906.4030446050019,906.4030446050019,906.4030446050019,906.4030446050019,906.4189817520019,906.4189817520019,906.4189817520019,906.4189817520019,switch,letter,lettSwt,j,0.6790394900017418,noRew,,,0,907.1055553799961,,,,,,,,,,,,,,,,,,,,,42648,2022-09-21_10h16.19.302,vts_reward_expectancy_OFFLINE,2022.2.4,60.10703668737808,
,,,,,,,,,,,,,,,,,,,,,,,,,,,,,,,,,,,,,,,,,,6,0,6,0,,,,,,,,,,,,,,,,,,,,,,,,0,666,,,,139,Y,star,0.0005417359934654087,909.1096995319967,,,,,,,,1,0,,,,,,,,,,,,909.6056796789999,909.6056796789999,909.6056796789999,909.6056796789999,911.0900832519983,911.0900832519983,911.0900832519983,911.0900832519983,911.1059387170026,911.1059387170026,911.1059387170026,911.1059387170026,switch,number,numSwt,d,1.6795773030025885,noRew,,,0,912.7934778319977,914.2920679410017,,,,,,,,,,,,,,,,,,,,42648,2022-09-21_10h16.19.302,vts_reward_expectancy_OFFLINE,2022.2.4,60.10703668737808,
,,,,,,,,,,,,,,,,,,,,,,,,,,,,,,,,,,,,,,,,,,7,0,7,0,,,,,,,,,,,,,,,,,,,,,,,,0,666,,,,174,W,circle,0.00026186800096184015,914.7974221920012,,,,,,,,1,0,,,,,,,,,,,,915.3105457919955,915.3105457919955,915.3105457919955,915.3105457919955,916.777109634997,916.777109634997,916.777109634997,916.777109634997,916.8272112679988,916.8272112679988,916.8272112679988,916.8272112679988,switch,letter,lettSwt,k,1.5209934829981648,noRew,,,0,918.3300366979965,919.8305246570017,,,,,,,,,,,,,,,,,,,,42648,2022-09-21_10h16.19.302,vts_reward_expectancy_OFFLINE,2022.2.4,60.10703668737808,
,,,,,,,,,,,,,,,,,,,,,,,,,,,,,,,,,,,,,,,,,,8,0,8,0,,,,,,,,,,,,,,,,,,,,,,,,0,666,,,,139,F,hexagon,0.015328615998441819,920.3527208039959,,,,,,,,1,0,,,,,,,,,,,,920.8477345329957,920.8477345329957,920.8477345329957,920.8477345329957,922.3167190480017,922.3167190480017,922.3167190480017,922.3167190480017,922.348472824,922.348472824,922.348472824,922.348472824,switch,number,numSwt,d,0.7413811569931568,noRew,,,0,923.0853303449985,,,,,,,,,,,,,,,,,,,,,42648,2022-09-21_10h16.19.302,vts_reward_expectancy_OFFLINE,2022.2.4,60.10703668737808,
,,,,,,,,,,,,,,,,,,,,,,,,,,,,,,,,,,,,,,,,,,9,0,9,0,,,,,,,,,,,,,,,,,,,,,,,,0,666,,,,174,B,circle,0.01636784699803684,925.1049522329995,,,,,,,,1,0,,,,,,,,,,,,925.5999143770023,925.5999143770023,925.5999143770023,925.5999143770023,927.0684739889984,927.0684739889984,927.0684739889984,927.0684739889984,927.1004709839981,927.1004709839981,927.1004709839981,927.1004709839981,switch,letter,lettSwt,j,0.6692983199973241,noRew,,,0,927.7693989159961,929.2698352200023,,,,,,,,,,,,,,,,,,,,42648,2022-09-21_10h16.19.302,vts_reward_expectancy_OFFLINE,2022.2.4,60.10703668737808,
,,,,,,,,,,,,,,,,,,,,,,,,,,,,,,,,,,,,,,,,,,10,0,10,0,,,,,,,,,,,,,,,,,,,,,,,,0,666,,,,125,H,hexagon,0.013686525999219157,929.7913486409961,,,,,,,,1,0,,,,,,,,,,,,930.2877601509972,930.2877601509972,930.2877601509972,930.2877601509972,931.7712572570017,931.7712572570017,931.7712572570017,931.7712572570017,931.7874521109989,931.7874521109989,931.7874521109989,931.7874521109989,switch,number,numSwt,d,0.710082320998481,noRew,,,0,932.5078258540016,934.0065468129978,,,,,,,,,,,,,,,,,,,,42648,2022-09-21_10h16.19.302,vts_reward_expectancy_OFFLINE,2022.2.4,60.10703668737808,
,,,,,,,,,,,,,,,,,,,,,,,,,,,,,,,,,,,,,,,,,,11,0,11,0,,,,,,,,,,,,,,,,,,,,,,,,0,666,,,,132,W,circle,0.0006078560036257841,934.5115646819977,,,,,,,,1,0,,,,,,,,,,,,935.0075835160023,935.0075835160023,935.0075835160023,935.0075835160023,936.4917630529962,936.4917630529962,936.4917630529962,936.4917630529962,936.5075397920009,936.5075397920009,936.5075397920009,936.5075397920009,switch,letter,lettSwt,k,0.542209893996187,noRew,,,0,937.0597892239966,,,,,,,,,,,,,,,,,,,,,42648,2022-09-21_10h16.19.302,vts_reward_expectancy_OFFLINE,2022.2.4,60.10703668737808,
,,,,,,,,,,,,,,,,,,,,,,,,,,,,,,,,,,,,,,,,,,12,0,12,0,,,,,,,,,,,,,,,,,,,,,,,,0,666,,,,139,S,circle,0.0019712830035132356,939.0668045650018,,,,,,,,1,0,,,,,,,,,,,,939.5618296370012,939.5618296370012,939.5618296370012,939.5618296370012,941.0453873899969,941.0453873899969,941.0453873899969,941.0453873899969,941.0618782439997,941.0618782439997,941.0618782439997,941.0618782439997,switch,number,numSwt,d,0.79667494000023,noRew,,,0,941.8646158740012,,,,,,,,,,,,,,,,,,,,,42648,2022-09-21_10h16.19.302,vts_reward_expectancy_OFFLINE,2022.2.4,60.10703668737808,
,,,,,,,,,,,,,,,,,,,,,,,,,,,,,,,,,,,,,,,,,,13,0,13,0,,,,,,,,,,,,,,,,,,,,,,,,0,666,,,,167,D,hexagon,0.0014239420052035712,943.8687414460001,,,,,,,,1,0,,,,,,,,,,,,944.364416905999,944.364416905999,944.364416905999,944.364416905999,945.8487492249988,945.8487492249988,945.8487492249988,945.8487492249988,945.8645757010017,945.8645757010017,945.8645757010017,945.8645757010017,switch,letter,lettSwt,j,0.7453995579999173,noRew,,,0,946.6167438720004,,,,,,,,,,,,,,,,,,,,,42648,2022-09-21_10h16.19.302,vts_reward_expectancy_OFFLINE,2022.2.4,60.10703668737808,
,,,,,,,,,,,,,,,,,,,,,,,,,,,,,,,,,,,,,,,,,,14,0,14,0,,,,,,,,,,,,,,,,,,,,,,,,0,666,,,,132,F,hexagon,0.0024109439982566983,948.6239378909959,,,,,,,,1,0,,,,,,,,,,,,949.1194750989962,949.1194750989962,949.1194750989962,949.1194750989962,950.6025620739965,950.6025620739965,950.6025620739965,950.6025620739965,950.6189783049995,950.6189783049995,950.6189783049995,950.6189783049995,switch,number,numSwt,d,0.6953556259977631,noRew,,,0,951.3216585690025,,,,,,,,,,,,,,,,,,,,,42648,2022-09-21_10h16.19.302,vts_reward_expectancy_OFFLINE,2022.2.4,60.10703668737808,
,,,,,,,,,,,,,,,,,,,,,,,,,,,,,,,,,,,,,,,,,,15,0,15,0,,,,,,,,,,,,,,,,,,,,,,,,0,666,,,,160,B,triangle,0.001002276003418956,953.3252135790026,,,,,,,,1,0,,,,,,,,,,,,953.8213619000016,953.8213619000016,953.8213619000016,953.8213619000016,955.3059552659979,955.3059552659979,955.3059552659979,955.3059552659979,955.3216289449992,955.3216289449992,955.3216289449992,955.3216289449992,switch,letter,lettSwt,j,0.7760283850002452,noRew,,,0,956.1084577910005,,,,,,,,,,,,,,,,,,,,,42648,2022-09-21_10h16.19.302,vts_reward_expectancy_OFFLINE,2022.2.4,60.10703668737808,
,,,,,,,,,,,,,,,,,,,,,,,,,,,,,,,,,,,,,,,,,,16,0,16,0,,,,,,,,,,,,,,,,,,,,,,,,0,666,,,,181,Y,circle,0.0007077800037222914,958.112118265999,,,,,,,,1,0,,,,,,,,,,,,958.608314912999,958.608314912999,958.608314912999,958.608314912999,960.0926245599985,960.0926245599985,960.0926245599985,960.0926245599985,960.1084959200016,960.1084959200016,960.1084959200016,960.1084959200016,switch,number,numSwt,f,0.7169493729961687,noRew,,,0,960.8429290999993,962.3456847830021,,,,,,,,,,,,,,,,,,,,42648,2022-09-21_10h16.19.302,vts_reward_expectancy_OFFLINE,2022.2.4,60.10703668737808,
,,,,,,,,,,,,,,,,,,,,,,,,,,,,,,,,,,,,,,,,,,17,0,17,0,,,,,,,,,,,,,,,,,,,,,,,,0,666,,,,160,B,hexagon,0.0001081709997379221,962.8486776790014,,,,,,,,1,0,,,,,,,,,,,,963.3451818009999,963.3451818009999,963.3451818009999,963.3451818009999,964.8293813900018,964.8293813900018,964.8293813900018,964.8293813900018,964.8452323660022,964.8452323660022,964.8452323660022,964.8452323660022,switch,letter,lettSwt,j,0.5403971240011742,noRew,,,0,965.3976138360013,,,,,,,,,,,,,,,,,,,,,42648,2022-09-21_10h16.19.302,vts_reward_expectancy_OFFLINE,2022.2.4,60.10703668737808,
,,,,,,,,,,,,,,,,,,,,,,,,,,,,,,,,,,,,,,,,,,18,0,18,0,,,,,,,,,,,,,,,,,,,,,,,,0,666,,,,125,H,star,0.01582278899877565,967.4185577219978,,,,,,,,1,0,,,,,,,,,,,,967.8999635739965,967.8999635739965,967.8999635739965,967.8999635739965,969.3833761479982,969.3833761479982,969.3833761479982,969.3833761479982,969.3997938609973,969.3997938609973,969.3997938609973,969.3997938609973,switch,number,numSwt,d,0.5142132219989435,noRew,,,0,969.9179650680016,971.4164259539975,,,,,,,,,,,,,,,,,,,,42648,2022-09-21_10h16.19.302,vts_reward_expectancy_OFFLINE,2022.2.4,60.10703668737808,
,,,,,,,,,,,,,,,,,,,,,,,,,,,,,,,,,,,,,,,,,,19,0,19,0,,,,,,,,,,,,,,,,,,,,,,,,0,666,,,,167,D,circle,0.0003252790047554299,971.9219902479963,,,,,,,,1,0,,,,,,,,,,,,972.4198408439988,972.4198408439988,972.4198408439988,972.4198408439988,973.9035873659959,973.9035873659959,973.9035873659959,973.9035873659959,973.9199721319965,973.9199721319965,973.9199721319965,973.9199721319965,switch,letter,lettSwt,j,0.7859314960005577,noRew,,,0,974.7222312000013,,,,,,,,,,,,,,,,,,,,,42648,2022-09-21_10h16.19.302,vts_reward_expectancy_OFFLINE,2022.2.4,60.10703668737808,
,,,,,,,,,,,,,,,,,,,,,,,,,,,,,,,,,,,,,,,,,,20,0,20,0,,,,,,,,,,,,,,,,,,,,,,,,0,666,,,,132,D,triangle,0.0164808030021959,976.7422246220012,,,,,,,,1,0,,,,,,,,,,,,977.221002418999,977.221002418999,977.221002418999,977.221002418999,978.7060353769994,978.7060353769994,978.7060353769994,978.7060353769994,978.7236887780018,978.7236887780018,978.7236887780018,978.7236887780018,switch,number,numSwt,d,1.5910161520005204,noRew,,,0,980.325255937998,,,,,,,,,,,,,,,,,,,,,42648,2022-09-21_10h16.19.302,vts_reward_expectancy_OFFLINE,2022.2.4,60.10703668737808,
,,,,,,,,,,,,,,,,,,,,,,,,,,,,,,,,,,,,,,,,,,21,0,21,0,,,,,,,,,,,,,,,,,,,,,,,,0,666,,,,160,H,star,0.01777391100040404,982.347263994001,,,,,,,,1,0,,,,,,,,,,,,982.826947100999,982.826947100999,982.826947100999,982.826947100999,984.3096210130025,984.3096210130025,984.3096210130025,984.3096210130025,984.3274412649989,984.3274412649989,984.3274412649989,984.3274412649989,switch,letter,lettSwt,j,1.2440980159954051,noRew,,,0,985.5793319770019,,,,,,,,,,,,,,,,,,,,,42648,2022-09-21_10h16.19.302,vts_reward_expectancy_OFFLINE,2022.2.4,60.10703668737808,
,,,,,,,,,,,,,,,,,,,,,,,,,,,,,,,,,,,,,,,,,,22,0,22,0,,,,,,,,,,,,,,,,,,,,,,,,0,666,,,,146,F,triangle,0.01781208499596687,987.6014684129987,,,,,,,,1,0,,,,,,,,,,,,988.0810301829988,988.0810301829988,988.0810301829988,988.0810301829988,989.5633388259957,989.5633388259957,989.5633388259957,989.5633388259957,989.5976439270016,989.5976439270016,989.5976439270016,989.5976439270016,switch,number,numSwt,d,0.7502802820017678,noRew,,,0,990.332461416001,,,,,,,,,,,,,,,,,,,,,42648,2022-09-21_10h16.19.302,vts_reward_expectancy_OFFLINE,2022.2.4,60.10703668737808,
,,,,,,,,,,,,,,,,,,,,,,,,,,,,,,,,,,,,,,,,,,23,0,23,0,,,,,,,,,,,,,,,,,,,,,,,,0,666,,,,174,Y,circle,0.017833302001236007,992.3549462779993,,,,,,,,1,0,,,,,,,,,,,,992.8341275560015,992.8341275560015,992.8341275560015,992.8341275560015,994.3169856769964,994.3169856769964,994.3169856769964,994.3169856769964,994.3345995080017,994.3345995080017,994.3345995080017,994.3345995080017,switch,letter,lettSwt,k,0.6048067809970235,noRew,,,0,994.9536402509984,,,,,,,,,,,,,,,,,,,,,42648,2022-09-21_10h16.19.302,vts_reward_expectancy_OFFLINE,2022.2.4,60.10703668737808,
,,,,,,,,,,,,,,,,,,,,,,,,,,,,,,,,,,,,,,,,,,24,0,24,0,,,,,,,,,,,,,,,,,,,,,,,,0,666,,,,181,D,triangle,0.01626420100365067,996.9734219940001,,,,,,,,1,0,,,,,,,,,,,,997.4536490440005,997.4536490440005,997.4536490440005,997.4536490440005,998.9378981080008,998.9378981080008,998.9378981080008,998.9378981080008,998.9538632069962,998.9538632069962,998.9538632069962,998.9538632069962,switch,number,numSwt,f,0.7521413280046545,noRew,,,0,999.7234340009963,,,,,,,,,,,,,,,,,,,,,42648,2022-09-21_10h16.19.302,vts_reward_expectancy_OFFLINE,2022.2.4,60.10703668737808,
,,,,,,,,,,,,,,,,,,,,,,,,,,,,,,,,,,,,,,,,,,25,0,25,0,,,,,,,,,,,,,,,,,,,,,,,,0,666,,,,132,Y,star,0.017439101000491064,1001.7447318389968,,,,,,,,1,0,,,,,,,,,,,,1002.239716322998,1002.239716322998,1002.239716322998,1002.239716322998,1003.708284225002,1003.708284225002,1003.708284225002,1003.708284225002,1003.7419496719958,1003.7419496719958,1003.7419496719958,1003.7419496719958,switch,letter,lettSwt,k,0.6377610029958305,noRew,,,0,1004.3761210910016,1005.8747492350012,,,,,,,,,,,,,,,,,,,,42648,2022-09-21_10h16.19.302,vts_reward_expectancy_OFFLINE,2022.2.4,60.10703668737808,
,,,,,,,,,,,,,,,,,,,,,,,,,,,,,,,,,,,,,,,,,,26,0,26,0,,,,,,,,,,,,,,,,,,,,,,,,0,666,,,,167,B,circle,0.0003786039960687049,1006.3804856299976,,,,,,,,1,0,,,,,,,,,,,,1006.8757101079973,1006.8757101079973,1006.8757101079973,1006.8757101079973,1008.3608747420003,1008.3608747420003,1008.3608747420003,1008.3608747420003,1008.3785802010025,1008.3785802010025,1008.3785802010025,1008.3785802010025,switch,number,numSwt,f,1.7049104260004242,noRew,,,0,1010.0983980050005,,,,,,,,,,,,,,,,,,,,,42648,2022-09-21_10h16.19.302,vts_reward_expectancy_OFFLINE,2022.2.4,60.10703668737808,
,,,,,,,,,,,,,,,,,,,,,,,,,,,,,,,,,,,,,,,,,,27,0,27,0,,,,,,,,,,,,,,,,,,,,,,,,0,666,,,,125,W,star,0.015965882994350977,1012.1179120369998,,,,,,,,1,0,,,,,,,,,,,,1012.5988505919959,1012.5988505919959,1012.5988505919959,1012.5988505919959,1014.0816325740016,1014.0816325740016,1014.0816325740016,1014.0816325740016,1014.0991356930026,1014.0991356930026,1014.0991356930026,1014.0991356930026,switch,letter,lettSwt,k,1.2155009349953616,noRew,,,0,1015.3184718990015,,,,,,,,,,,,,,,,,,,,,42648,2022-09-21_10h16.19.302,vts_reward_expectancy_OFFLINE,2022.2.4,60.10703668737808,
,,,,,,,,,,,,,,,,,,,,,,,,,,,,,,,,,,,,,,,,,,28,0,28,0,,,,,,,,,,,,,,,,,,,,,,,,0,666,,,,125,Y,hexagon,0.01634710199869005,1017.338346231998,,,,,,,,1,0,,,,,,,,,,,,1017.8192724010005,1017.8192724010005,1017.8192724010005,1017.8192724010005,1019.3029801770026,1019.3029801770026,1019.3029801770026,1019.3029801770026,1019.3203538919988,1019.3203538919988,1019.3203538919988,1019.3203538919988,switch,number,numSwt,d,1.1700784159984323,noRew,,,0,1020.5045156139968,,,,,,,,,,,,,,,,,,,,,42648,2022-09-21_10h16.19.302,vts_reward_expectancy_OFFLINE,2022.2.4,60.10703668737808,
,,,,,,,,,,,,,,,,,,,,,,,,,,,,,,,,,,,,,,,,,,29,0,29,0,,,,,,,,,,,,,,,,,,,,,,,,0,666,,,,132,D,star,0.018017731999862008,1022.5268366679957,,,,,,,,1,0,,,,,,,,,,,,1023.006190013999,1023.006190013999,1023.006190013999,1023.006190013999,1024.4889646730007,1024.4889646730007,1024.4889646730007,1024.4889646730007,1024.5068388869986,1024.5068388869986,1024.5068388869986,1024.5068388869986,switch,letter,lettSwt,j,1.3284992069966393,noRew,,,0,1025.8416227109992,,,,,,,,,,,,,,,,,,,,,42648,2022-09-21_10h16.19.302,vts_reward_expectancy_OFFLINE,2022.2.4,60.10703668737808,
,,,,,,,,,,,,,,,,,,,,,,,,,,,,,,,,,,,,,,,,,,30,0,30,0,,,,,,,,,,,,,,,,,,,,,,,,0,666,,,,174,H,circle,0.003996419000031892,1027.8479950499968,,,,,,,,1,0,,,,,,,,,,,,1028.3423494189992,1028.3423494189992,1028.3423494189992,1028.3423494189992,1029.8269729759995,1029.8269729759995,1029.8269729759995,1029.8269729759995,1029.842690792997,1029.842690792997,1029.842690792997,1029.842690792997,switch,number,numSwt,f,1.0709221139986767,noRew,,,0,1030.9298211249989,,,,,,,,,,,,,,,,,,,,,42648,2022-09-21_10h16.19.302,vts_reward_expectancy_OFFLINE,2022.2.4,60.10703668737808,
,,,,,,,,,,,,,,,,,,,,,,,,,,,,,,,,,,,,,,,,,,31,0,31,0,,,,,,,,,,,,,,,,,,,,,,,,0,666,,,,146,S,hexagon,0.0014705319990753196,1032.9335537110019,,,,,,,,1,0,,,,,,,,,,,,1033.4294670109957,1033.4294670109957,1033.4294670109957,1033.4294670109957,1034.9136789889963,1034.9136789889963,1034.9136789889963,1034.9136789889963,1034.929751370997,1034.929751370997,1034.929751370997,1034.929751370997,switch,letter,lettSwt,k,1.5356170409941114,noRew,,,0,1036.481274685997,1037.983036917998,,,,,,,,,,,,,,,,,,,,42648,2022-09-21_10h16.19.302,vts_reward_expectancy_OFFLINE,2022.2.4,60.10703668737808,
,,,,,,,,,,,,,,,,,,,,,,,,,,,,,,,,,,,,,,,,,,32,0,32,0,,,,,,,,,,,,,,,,,,,,,,,,0,666,,,,132,S,circle,-0.0006411020003724843,1038.4889772179959,,,,,,,,1,0,,,,,,,,,,,,1038.9995628199977,1038.9995628199977,1038.9995628199977,1038.9995628199977,1040.4842885109974,1040.4842885109974,1040.4842885109974,1040.4842885109974,1040.5001834439972,1040.5001834439972,1040.5001834439972,1040.5001834439972,switch,number,numSwt,d,1.3646951859991532,noRew,,,0,1041.8699670409987,,,,,,,,,,,,,,,,,,,,,42648,2022-09-21_10h16.19.302,vts_reward_expectancy_OFFLINE,2022.2.4,60.10703668737808,
,,,,,,,,,,,,,,,,,,,,,,,,,,,,,,,,,,,,,,,,,,33,0,33,0,,,,,,,,,,,,,,,,,,,,,,,,0,666,,,,167,Y,star,0.0028689829996437766,1043.8763313620002,,,,,,,,1,0,,,,,,,,,,,,1044.3719036809998,1044.3719036809998,1044.3719036809998,1044.3719036809998,1045.8552936229971,1045.8552936229971,1045.8552936229971,1045.8552936229971,1045.8714441310003,1045.8714441310003,1045.8714441310003,1045.8714441310003,switch,letter,lettSwt,k,0.8336111819953658,noRew,,,0,1046.721428509998,1048.2242744079995,,,,,,,,,,,,,,,,,,,,42648,2022-09-21_10h16.19.302,vts_reward_expectancy_OFFLINE,2022.2.4,60.10703668737808,
,,,,,,,,,,,,,,,,,,,,,,,,,,,,,,,,,,,,,,,,,,34,0,34,0,,,,,,,,,,,,,,,,,,,,,,,,0,666,,,,160,F,star,0.00022436099970946088,1048.7283266640006,,,,,,,,1,0,,,,,,,,,,,,1049.2239353600016,1049.2239353600016,1049.2239353600016,1049.2239353600016,1050.7083471829974,1050.7083471829974,1050.7083471829974,1050.7083471829974,1050.7241759780009,1050.7241759780009,1050.7241759780009,1050.7241759780009,switch,number,numSwt,f,0.7007884279955761,noRew,,,0,1051.442302960997,,,,,,,,,,,,,,,,,,,,,42648,2022-09-21_10h16.19.302,vts_reward_expectancy_OFFLINE,2022.2.4,60.10703668737808,
,,,,,,,,,,,,,,,,,,,,,,,,,,,,,,,,,,,,,,,,,,35,0,35,0,,,,,,,,,,,,,,,,,,,,,,,,0,666,,,,139,W,triangle,0.0006154660004540347,1053.4480638980021,,,,,,,,1,0,,,,,,,,,,,,1053.9440579349975,1053.9440579349975,1053.9440579349975,1053.9440579349975,1055.4285668629964,1055.4285668629964,1055.4285668629964,1055.4285668629964,1055.4442318209985,1055.4442318209985,1055.4442318209985,1055.4442318209985,switch,letter,lettSwt,k,0.8927978219944634,noRew,,,0,1056.3468968250017,,,,,,,,,,,,,,,,,,,,,42648,2022-09-21_10h16.19.302,vts_reward_expectancy_OFFLINE,2022.2.4,60.10703668737808,
,,,,,,,,,,,,,,,,,,,,,,,,,,,,,,,,,,,,,,,,,,36,0,36,0,,,,,,,,,,,,,,,,,,,,,,,,0,666,,,,160,H,hexagon,0.002460016999975778,1058.353403385001,,,,,,,,1,0,,,,,,,,,,,,1058.8490943200013,1058.8490943200013,1058.8490943200013,1058.8490943200013,1060.3326641000021,1060.3326641000021,1060.3326641000021,1060.3326641000021,1060.3487958839978,1060.3487958839978,1060.3487958839978,1060.3487958839978,switch,number,numSwt,f,1.1329514349999954,noRew,,,0,1061.4993929030024,1063.0009255650002,,,,,,,,,,,,,,,,,,,,42648,2022-09-21_10h16.19.302,vts_reward_expectancy_OFFLINE,2022.2.4,60.10703668737808,
,,,,,,,,,,,,,,,,,,,,,,,,,,,,,,,,,,,,,,,,,,37,0,37,0,,,,,,,,,,,,,,,,,,,,,,,,0,666,,,,139,Y,star,0.0005226209977990948,1063.5057912400007,,,,,,,,1,0,,,,,,,,,,,,1064.0014057949957,1064.0014057949957,1064.0014057949957,1064.0014057949957,1065.4856916089993,1065.4856916089993,1065.4856916089993,1065.4856916089993,1065.5016114089958,1065.5016114089958,1065.5016114089958,1065.5016114089958,switch,letter,lettSwt,k,0.7089910720023909,noRew,,,0,1066.2210232329962,,,,,,,,,,,,,,,,,,,,,42648,2022-09-21_10h16.19.302,vts_reward_expectancy_OFFLINE,2022.2.4,60.10703668737808,
,,,,,,,,,,,,,,,,,,,,,,,,,,,,,,,,,,,,,,,,,,38,0,38,0,,,,,,,,,,,,,,,,,,,,,,,,0,666,,,,125,F,hexagon,0.00238831399474293,1068.226063682996,,,,,,,,1,0,,,,,,,,,,,,1068.7217114140003,1068.7217114140003,1068.7217114140003,1068.7217114140003,1070.2061674430006,1070.2061674430006,1070.2061674430006,1070.2061674430006,1070.221666669997,1070.221666669997,1070.221666669997,1070.221666669997,switch,number,numSwt,d,0.891535312992346,noRew,,,0,1071.1242378899988,,,,,,,,,,,,,,,,,,,,,42648,2022-09-21_10h16.19.302,vts_reward_expectancy_OFFLINE,2022.2.4,60.10703668737808,
,,,,,,,,,,,,,,,,,,,,,,,,,,,,,,,,,,,,,,,,,,39,0,39,0,,,,,,,,,,,,,,,,,,,,,,,,0,666,,,,174,D,star,0.0013001960032852367,1073.1291048470011,,,,,,,,1,0,,,,,,,,,,,,1073.625098286997,1073.625098286997,1073.625098286997,1073.625098286997,1075.1096881280027,1075.1096881280027,1075.1096881280027,1075.1096881280027,1075.1256595099985,1075.1256595099985,1075.1256595099985,1075.1256595099985,switch,letter,lettSwt,j,1.171310033001646,noRew,,,0,1076.312976617999,,,,,,,,,,,,,,,,,,,,,42648,2022-09-21_10h16.19.302,vts_reward_expectancy_OFFLINE,2022.2.4,60.10703668737808,
,,,,,,,,,,,,,,,,,,,,,,,,,,,,,,,,,,,,,,,,,,40,0,40,0,,,,,,,,,,,,,,,,,,,,,,,,0,666,,,,174,F,star,0.0009726450007292442,1078.3164291499997,,,,,,,,1,0,,,,,,,,,,,,1078.8122976379964,1078.8122976379964,1078.8122976379964,1078.8122976379964,1080.2965528170025,1080.2965528170025,1080.2965528170025,1080.2965528170025,1080.3126288709973,1080.3126288709973,1080.3126288709973,1080.3126288709973,switch,number,numSwt,f,1.376535365001473,noRew,,,0,1081.6998244619972,,,,,,,,,,,,,,,,,,,,,42648,2022-09-21_10h16.19.302,vts_reward_expectancy_OFFLINE,2022.2.4,60.10703668737808,
,,,,,,,,,,,,,,,,,,,,,,,,,,,,,,,,,,,,,,,,,,41,0,41,0,,,,,,,,,,,,,,,,,,,,,,,,0,666,,,,125,U,circle,0.0005270510009722784,1083.7034371209957,,,,,,,,1,0,,,,,,,,,,,,1084.1991510239968,1084.1991510239968,1084.1991510239968,1084.1991510239968,1085.6835423270022,1085.6835423270022,1085.6835423270022,1085.6835423270022,1085.6997404779977,1085.6997404779977,1085.6997404779977,1085.6997404779977,switch,letter,lettSwt,k,1.1421538739959942,noRew,,,0,1086.852229395001,,,,,,,,,,,,,,,,,,,,,42648,2022-09-21_10h16.19.302,vts_reward_expectancy_OFFLINE,2022.2.4,60.10703668737808,
