LTriangleOpac,LCircleOpac,LHexagonOpac,LStarOpac,RTriangleOpac,RCircleOpac,RHexagonOpac,RStarOpac,LShape_ID,RShape_ID,training_blocks.thisRepN,training_blocks.thisTrialN,training_blocks.thisN,training_blocks.thisIndex,training.thisRepN,training.thisTrialN,training.thisN,training.thisIndex,task1_prac_redo.thisRepN,task1_prac_redo.thisTrialN,task1_prac_redo.thisN,task1_prac_redo.thisIndex,task1_prac_trials.thisRepN,task1_prac_trials.thisTrialN,task1_prac_trials.thisN,task1_prac_trials.thisIndex,task2_prac_redo.thisRepN,task2_prac_redo.thisTrialN,task2_prac_redo.thisN,task2_prac_redo.thisIndex,task2_praac_trials.thisRepN,task2_praac_trials.thisTrialN,task2_praac_trials.thisN,task2_praac_trials.thisIndex,vts_prac_redo.thisRepN,vts_prac_redo.thisTrialN,vts_prac_redo.thisN,vts_prac_redo.thisIndex,vts_practice_trials.thisRepN,vts_practice_trials.thisTrialN,vts_practice_trials.thisN,vts_practice_trials.thisIndex,trials_norew.thisRepN,trials_norew.thisTrialN,trials_norew.thisN,trials_norew.thisIndex,block.thisRepN,block.thisTrialN,block.thisN,block.thisIndex,trials_rew.thisRepN,trials_rew.thisTrialN,trials_rew.thisN,trials_rew.thisIndex,key_resp.started,key_resp.keys,key_resp.rt,left_circle.started,right_circle.started,left_triangle.started,right_triangle.started,left_star.started,right_star.started,left_hexagon.started,right_hexagon.started,training_fix.started,training_resp.started,training_resp.keys,training_resp.rt,points_trial,points_cumul,trainBlock,training_feedback_txt.started,fix.started,training_feedback_txt.stopped,fix.stopped,curr_topStim,curr_bottStim,curr_shape,ISI.started,tgt_fix_prac1.started,top_target_prac1.started,bott_target_prac1.started,target_resp_prac1.started,acc,E1,target_resp_prac1.keys,target_resp_prac1.rt,pracBlock,prac_fback_text.started,prac_fback_text.stopped,tgt_fix_prac2.started,top_target_prac2.started,bott_target_prac2.started,target_resp_prac2.started,target_resp_prac2.keys,target_resp_prac2.rt,star.started,hegagon.started,triangle.started,circle.started,top_target.started,tgt_fix.started,bot_target.started,target_resp.started,star.stopped,hegagon.stopped,triangle.stopped,circle.stopped,top_target.stopped,tgt_fix.stopped,bot_target.stopped,target_resp.stopped,alt,task,condition,target_resp.keys,rewCond,vts_fback.started,target_resp.rt,vts_fback.stopped,blockNum,norew_fback.started,norew_fback.stopped,key_resp_2.keys,key_resp_2.rt,feedbk_text.started,feedbk_text.stopped,text_3.started,text_3.stopped,button.started,debrief.index,debrief.itemText,debrief.type,debrief.granularity,debrief.font,debrief.markerColor,debrief.response,debrief.rt,button.numClicks,button.timesOn,button.timesOff,participant,date,expName,psychopyVersion,frameRate,
,,,,,,,,,,,,,,,,,,,,,,,,,,,,,,,,,,,,,,,,,,,,,,,,,,,,,,17.78387230000226,space,37.05035144799331,,,,,,,,,,,,,,,,,,,,,,,,,,,,,,,,,,,,,,,,,,,,,,,,,,,,,,,,,,,,,,,,,,,,,,,,,,,,,,,,,,,,,,47150,2022-09-20_10h22.17.720,vts_reward_expectancy_OFFLINE,2022.2.4,59.923776118264016,
0,1,0,0,1,0,0,0,circle,triangle,0,0,0,0,0,0,0,3,,,,,,,,,,,,,,,,,,,,,,,,,,,,,,,,,,,,,,,,98.53736015900358,98.53736015900358,98.53736015900358,98.53736015900358,98.53736015900358,98.53736015900358,98.53736015900358,98.53736015900358,98.53736015900358,98.53736015900358,a,3.0013185650022933,1,1,0,101.55727844100329,103.05893023499812,,,,,,,,,,,,,,,,,,,,,,,,,,,,,,,,,,,,,,,,,,,,,,,,,,,,,,,,,,,,,,,,,,,,,47150,2022-09-20_10h22.17.720,vts_reward_expectancy_OFFLINE,2022.2.4,59.923776118264016,
0,0,0,1,1,0,0,0,star,triangle,0,0,0,0,0,1,1,9,,,,,,,,,,,,,,,,,,,,,,,,,,,,,,,,,,,,,,,,103.55956209300348,103.55956209300348,103.55956209300348,103.55956209300348,103.55956209300348,103.55956209300348,103.55956209300348,103.55956209300348,103.55956209300348,103.55956209300348,l,3.330439393997949,1,2,0,106.91326094599935,108.41502244299772,,,,,,,,,,,,,,,,,,,,,,,,,,,,,,,,,,,,,,,,,,,,,,,,,,,,,,,,,,,,,,,,,,,,,47150,2022-09-20_10h22.17.720,vts_reward_expectancy_OFFLINE,2022.2.4,59.923776118264016,
0,1,0,0,0,0,0,1,circle,star,0,0,0,0,0,2,2,5,,,,,,,,,,,,,,,,,,,,,,,,,,,,,,,,,,,,,,,,108.91565341399837,108.91565341399837,108.91565341399837,108.91565341399837,108.91565341399837,108.91565341399837,108.91565341399837,108.91565341399837,108.91565341399837,108.91565341399837,l,1.1422759709967067,10,12,0,110.08341388300323,111.58515958899807,,,,,,,,,,,,,,,,,,,,,,,,,,,,,,,,,,,,,,,,,,,,,,,,,,,,,,,,,,,,,,,,,,,,,47150,2022-09-20_10h22.17.720,vts_reward_expectancy_OFFLINE,2022.2.4,59.923776118264016,
1,0,0,0,0,0,1,0,triangle,hexagon,0,0,0,0,0,3,3,1,,,,,,,,,,,,,,,,,,,,,,,,,,,,,,,,,,,,,,,,112.0858447510036,112.0858447510036,112.0858447510036,112.0858447510036,112.0858447510036,112.0858447510036,112.0858447510036,112.0858447510036,112.0858447510036,112.0858447510036,l,0.46029281899973284,10,22,0,112.56958822500019,114.0711677290019,,,,,,,,,,,,,,,,,,,,,,,,,,,,,,,,,,,,,,,,,,,,,,,,,,,,,,,,,,,,,,,,,,,,,47150,2022-09-20_10h22.17.720,vts_reward_expectancy_OFFLINE,2022.2.4,59.923776118264016,
0,1,0,0,0,0,1,0,circle,hexagon,0,0,0,0,0,4,4,4,,,,,,,,,,,,,,,,,,,,,,,,,,,,,,,,,,,,,,,,114.5718208180042,114.5718208180042,114.5718208180042,114.5718208180042,114.5718208180042,114.5718208180042,114.5718208180042,114.5718208180042,114.5718208180042,114.5718208180042,l,3.5654019209978287,1,23,0,118.15915235000284,119.6604265010028,,,,,,,,,,,,,,,,,,,,,,,,,,,,,,,,,,,,,,,,,,,,,,,,,,,,,,,,,,,,,,,,,,,,,47150,2022-09-20_10h22.17.720,vts_reward_expectancy_OFFLINE,2022.2.4,59.923776118264016,
0,0,0,1,0,1,0,0,star ,circle,0,0,0,0,0,5,5,10,,,,,,,,,,,,,,,,,,,,,,,,,,,,,,,,,,,,,,,,120.16085190499871,120.16085190499871,120.16085190499871,120.16085190499871,120.16085190499871,120.16085190499871,120.16085190499871,120.16085190499871,120.16085190499871,120.16085190499871,a,2.86422108199622,1,24,0,123.04761670099833,124.54942493099952,,,,,,,,,,,,,,,,,,,,,,,,,,,,,,,,,,,,,,,,,,,,,,,,,,,,,,,,,,,,,,,,,,,,,47150,2022-09-20_10h22.17.720,vts_reward_expectancy_OFFLINE,2022.2.4,59.923776118264016,
0,0,1,0,1,0,0,0,hexagon,triangle,0,0,0,0,0,6,6,6,,,,,,,,,,,,,,,,,,,,,,,,,,,,,,,,,,,,,,,,125.04980953300401,125.04980953300401,125.04980953300401,125.04980953300401,125.04980953300401,125.04980953300401,125.04980953300401,125.04980953300401,125.04980953300401,125.04980953300401,a,3.2320621090038912,10,34,0,128.30364815099892,129.80516690600052,,,,,,,,,,,,,,,,,,,,,,,,,,,,,,,,,,,,,,,,,,,,,,,,,,,,,,,,,,,,,,,,,,,,,47150,2022-09-20_10h22.17.720,vts_reward_expectancy_OFFLINE,2022.2.4,59.923776118264016,
0,0,0,1,0,0,1,0,star,hexagon,0,0,0,0,0,7,7,11,,,,,,,,,,,,,,,,,,,,,,,,,,,,,,,,,,,,,,,,130.3056531550028,130.3056531550028,130.3056531550028,130.3056531550028,130.3056531550028,130.3056531550028,130.3056531550028,130.3056531550028,130.3056531550028,130.3056531550028,a,1.9434112450035173,1,35,0,132.2746548540017,133.77638436100096,,,,,,,,,,,,,,,,,,,,,,,,,,,,,,,,,,,,,,,,,,,,,,,,,,,,,,,,,,,,,,,,,,,,,47150,2022-09-20_10h22.17.720,vts_reward_expectancy_OFFLINE,2022.2.4,59.923776118264016,
1,0,0,0,0,0,0,1,triangle,star,0,0,0,0,0,8,8,2,,,,,,,,,,,,,,,,,,,,,,,,,,,,,,,,,,,,,,,,134.27679531500326,134.27679531500326,134.27679531500326,134.27679531500326,134.27679531500326,134.27679531500326,134.27679531500326,134.27679531500326,134.27679531500326,134.27679531500326,l,4.477432376996148,1,36,0,138.78167859300447,140.28343349000352,,,,,,,,,,,,,,,,,,,,,,,,,,,,,,,,,,,,,,,,,,,,,,,,,,,,,,,,,,,,,,,,,,,,,47150,2022-09-20_10h22.17.720,vts_reward_expectancy_OFFLINE,2022.2.4,59.923776118264016,
0,0,1,0,0,0,0,1,hexagon,star,0,0,0,0,0,9,9,8,,,,,,,,,,,,,,,,,,,,,,,,,,,,,,,,,,,,,,,,140.78417217300012,140.78417217300012,140.78417217300012,140.78417217300012,140.78417217300012,140.78417217300012,140.78417217300012,140.78417217300012,140.78417217300012,140.78417217300012,l,4.8023528269986855,1,37,0,145.60591147800005,147.1076779740033,,,,,,,,,,,,,,,,,,,,,,,,,,,,,,,,,,,,,,,,,,,,,,,,,,,,,,,,,,,,,,,,,,,,,47150,2022-09-20_10h22.17.720,vts_reward_expectancy_OFFLINE,2022.2.4,59.923776118264016,
1,0,0,0,0,1,0,0,triangle,circle,0,0,0,0,0,10,10,0,,,,,,,,,,,,,,,,,,,,,,,,,,,,,,,,,,,,,,,,147.60813444900123,147.60813444900123,147.60813444900123,147.60813444900123,147.60813444900123,147.60813444900123,147.60813444900123,147.60813444900123,147.60813444900123,147.60813444900123,l,2.170221489999676,10,47,0,149.81064809599775,151.31225423000433,,,,,,,,,,,,,,,,,,,,,,,,,,,,,,,,,,,,,,,,,,,,,,,,,,,,,,,,,,,,,,,,,,,,,47150,2022-09-20_10h22.17.720,vts_reward_expectancy_OFFLINE,2022.2.4,59.923776118264016,
0,0,1,0,0,1,0,0,hexagon,circle,0,0,0,0,0,11,11,7,,,,,,,,,,,,,,,,,,,,,,,,,,,,,,,,,,,,,,,,151.8128512309995,151.8128512309995,151.8128512309995,151.8128512309995,151.8128512309995,151.8128512309995,151.8128512309995,151.8128512309995,151.8128512309995,151.8128512309995,l,0.7655954459987697,10,57,0,152.59692529099993,154.09860215100343,,,,,,,,,,,,,,,,,,,,,,,,,,,,,,,,,,,,,,,,,,,,,,,,,,,,,,,,,,,,,,,,,,,,,47150,2022-09-20_10h22.17.720,vts_reward_expectancy_OFFLINE,2022.2.4,59.923776118264016,
1,0,0,0,0,0,0,1,triangle,star,0,0,0,0,1,0,12,2,,,,,,,,,,,,,,,,,,,,,,,,,,,,,,,,,,,,,,,,154.59907319400372,154.59907319400372,154.59907319400372,154.59907319400372,154.59907319400372,154.59907319400372,154.59907319400372,154.59907319400372,154.59907319400372,154.59907319400372,l,1.6428172219966655,1,58,0,156.26771213600296,157.76935183100431,,,,,,,,,,,,,,,,,,,,,,,,,,,,,,,,,,,,,,,,,,,,,,,,,,,,,,,,,,,,,,,,,,,,,47150,2022-09-20_10h22.17.720,vts_reward_expectancy_OFFLINE,2022.2.4,59.923776118264016,
0,1,0,0,0,0,1,0,circle,hexagon,0,0,0,0,1,1,13,4,,,,,,,,,,,,,,,,,,,,,,,,,,,,,,,,,,,,,,,,158.27000342400424,158.27000342400424,158.27000342400424,158.27000342400424,158.27000342400424,158.27000342400424,158.27000342400424,158.27000342400424,158.27000342400424,158.27000342400424,a,4.523150676999649,1,59,0,162.82513644100254,164.32654252100474,,,,,,,,,,,,,,,,,,,,,,,,,,,,,,,,,,,,,,,,,,,,,,,,,,,,,,,,,,,,,,,,,,,,,47150,2022-09-20_10h22.17.720,vts_reward_expectancy_OFFLINE,2022.2.4,59.923776118264016,
0,1,0,0,0,0,0,1,circle,star,0,0,0,0,1,2,14,5,,,,,,,,,,,,,,,,,,,,,,,,,,,,,,,,,,,,,,,,164.82725289800146,164.82725289800146,164.82725289800146,164.82725289800146,164.82725289800146,164.82725289800146,164.82725289800146,164.82725289800146,164.82725289800146,164.82725289800146,a,3.606402582001465,1,60,0,168.46472065299895,169.96612756000104,,,,,,,,,,,,,,,,,,,,,,,,,,,,,,,,,,,,,,,,,,,,,,,,,,,,,,,,,,,,,,,,,,,,,47150,2022-09-20_10h22.17.720,vts_reward_expectancy_OFFLINE,2022.2.4,59.923776118264016,
0,0,1,0,0,1,0,0,hexagon,circle,0,0,0,0,1,3,15,7,,,,,,,,,,,,,,,,,,,,,,,,,,,,,,,,,,,,,,,,170.4665853750048,170.4665853750048,170.4665853750048,170.4665853750048,170.4665853750048,170.4665853750048,170.4665853750048,170.4665853750048,170.4665853750048,170.4665853750048,l,4.038977966003586,10,70,0,174.5377472550026,176.03952866300097,,,,,,,,,,,,,,,,,,,,,,,,,,,,,,,,,,,,,,,,,,,,,,,,,,,,,,,,,,,,,,,,,,,,,47150,2022-09-20_10h22.17.720,vts_reward_expectancy_OFFLINE,2022.2.4,59.923776118264016,
0,1,0,0,1,0,0,0,circle,triangle,0,0,0,0,1,4,16,3,,,,,,,,,,,,,,,,,,,,,,,,,,,,,,,,,,,,,,,,176.53993802900368,176.53993802900368,176.53993802900368,176.53993802900368,176.53993802900368,176.53993802900368,176.53993802900368,176.53993802900368,176.53993802900368,176.53993802900368,a,2.9350647579994984,1,71,0,179.4932969040019,180.99527842899988,,,,,,,,,,,,,,,,,,,,,,,,,,,,,,,,,,,,,,,,,,,,,,,,,,,,,,,,,,,,,,,,,,,,,47150,2022-09-20_10h22.17.720,vts_reward_expectancy_OFFLINE,2022.2.4,59.923776118264016,
0,0,0,1,0,1,0,0,star ,circle,0,0,0,0,1,5,17,10,,,,,,,,,,,,,,,,,,,,,,,,,,,,,,,,,,,,,,,,181.4956856200006,181.4956856200006,181.4956856200006,181.4956856200006,181.4956856200006,181.4956856200006,181.4956856200006,181.4956856200006,181.4956856200006,181.4956856200006,a,2.0591164090001257,1,72,0,183.58140118099982,185.08278131500265,,,,,,,,,,,,,,,,,,,,,,,,,,,,,,,,,,,,,,,,,,,,,,,,,,,,,,,,,,,,,,,,,,,,,47150,2022-09-20_10h22.17.720,vts_reward_expectancy_OFFLINE,2022.2.4,59.923776118264016,
0,0,0,1,0,0,1,0,star,hexagon,0,0,0,0,1,6,18,11,,,,,,,,,,,,,,,,,,,,,,,,,,,,,,,,,,,,,,,,185.58357118900312,185.58357118900312,185.58357118900312,185.58357118900312,185.58357118900312,185.58357118900312,185.58357118900312,185.58357118900312,185.58357118900312,185.58357118900312,l,29.65863809700386,10,82,0,215.26805381500162,216.76798692900047,,,,,,,,,,,,,,,,,,,,,,,,,,,,,,,,,,,,,,,,,,,,,,,,,,,,,,,,,,,,,,,,,,,,,47150,2022-09-20_10h22.17.720,vts_reward_expectancy_OFFLINE,2022.2.4,59.923776118264016,
1,0,0,0,0,0,1,0,triangle,hexagon,0,0,0,0,1,7,19,1,,,,,,,,,,,,,,,,,,,,,,,,,,,,,,,,,,,,,,,,217.26858534500207,217.26858534500207,217.26858534500207,217.26858534500207,217.26858534500207,217.26858534500207,217.26858534500207,217.26858534500207,217.26858534500207,217.26858534500207,a,2.3495108999995864,1,83,0,219.63768760899984,221.13935591300105,,,,,,,,,,,,,,,,,,,,,,,,,,,,,,,,,,,,,,,,,,,,,,,,,,,,,,,,,,,,,,,,,,,,,47150,2022-09-20_10h22.17.720,vts_reward_expectancy_OFFLINE,2022.2.4,59.923776118264016,
0,0,1,0,1,0,0,0,hexagon,triangle,0,0,0,0,1,8,20,6,,,,,,,,,,,,,,,,,,,,,,,,,,,,,,,,,,,,,,,,221.63988105399767,221.63988105399767,221.63988105399767,221.63988105399767,221.63988105399767,221.63988105399767,221.63988105399767,221.63988105399767,221.63988105399767,221.63988105399767,a,2.6349969369985047,1,84,0,224.29277852299856,225.79438642300374,,,,,,,,,,,,,,,,,,,,,,,,,,,,,,,,,,,,,,,,,,,,,,,,,,,,,,,,,,,,,,,,,,,,,47150,2022-09-20_10h22.17.720,vts_reward_expectancy_OFFLINE,2022.2.4,59.923776118264016,
1,0,0,0,0,1,0,0,triangle,circle,0,0,0,0,1,9,21,0,,,,,,,,,,,,,,,,,,,,,,,,,,,,,,,,,,,,,,,,226.2948991029989,226.2948991029989,226.2948991029989,226.2948991029989,226.2948991029989,226.2948991029989,226.2948991029989,226.2948991029989,226.2948991029989,226.2948991029989,l,1.562099719994876,10,94,0,227.88122427800408,229.3818611079987,,,,,,,,,,,,,,,,,,,,,,,,,,,,,,,,,,,,,,,,,,,,,,,,,,,,,,,,,,,,,,,,,,,,,47150,2022-09-20_10h22.17.720,vts_reward_expectancy_OFFLINE,2022.2.4,59.923776118264016,
0,0,0,1,1,0,0,0,star,triangle,0,0,0,0,1,10,22,9,,,,,,,,,,,,,,,,,,,,,,,,,,,,,,,,,,,,,,,,229.88240375400346,229.88240375400346,229.88240375400346,229.88240375400346,229.88240375400346,229.88240375400346,229.88240375400346,229.88240375400346,229.88240375400346,229.88240375400346,a,2.29494660400087,1,95,0,232.2015767000048,233.70325464000052,,,,,,,,,,,,,,,,,,,,,,,,,,,,,,,,,,,,,,,,,,,,,,,,,,,,,,,,,,,,,,,,,,,,,47150,2022-09-20_10h22.17.720,vts_reward_expectancy_OFFLINE,2022.2.4,59.923776118264016,
0,0,1,0,0,0,0,1,hexagon,star,0,0,0,0,1,11,23,8,,,,,,,,,,,,,,,,,,,,,,,,,,,,,,,,,,,,,,,,234.20363221400476,234.20363221400476,234.20363221400476,234.20363221400476,234.20363221400476,234.20363221400476,234.20363221400476,234.20363221400476,234.20363221400476,234.20363221400476,l,5.718360109000059,1,96,0,239.94321956000203,241.44514162599808,,,,,,,,,,,,,,,,,,,,,,,,,,,,,,,,,,,,,,,,,,,,,,,,,,,,,,,,,,,,,,,,,,,,,47150,2022-09-20_10h22.17.720,vts_reward_expectancy_OFFLINE,2022.2.4,59.923776118264016,
0,0,0,1,0,0,1,0,star,hexagon,0,0,0,0,2,0,24,11,,,,,,,,,,,,,,,,,,,,,,,,,,,,,,,,,,,,,,,,241.94574737900257,241.94574737900257,241.94574737900257,241.94574737900257,241.94574737900257,241.94574737900257,241.94574737900257,241.94574737900257,241.94574737900257,241.94574737900257,l,1.3201795919958386,10,106,0,243.2971401649993,244.7987622810033,,,,,,,,,,,,,,,,,,,,,,,,,,,,,,,,,,,,,,,,,,,,,,,,,,,,,,,,,,,,,,,,,,,,,47150,2022-09-20_10h22.17.720,vts_reward_expectancy_OFFLINE,2022.2.4,59.923776118264016,
0,0,1,0,0,0,0,1,hexagon,star,0,0,0,0,2,1,25,8,,,,,,,,,,,,,,,,,,,,,,,,,,,,,,,,,,,,,,,,245.29931789100374,245.29931789100374,245.29931789100374,245.29931789100374,245.29931789100374,245.29931789100374,245.29931789100374,245.29931789100374,245.29931789100374,245.29931789100374,l,3.573766245004663,1,107,0,248.90325712600315,250.405054269002,,,,,,,,,,,,,,,,,,,,,,,,,,,,,,,,,,,,,,,,,,,,,,,,,,,,,,,,,,,,,,,,,,,,,47150,2022-09-20_10h22.17.720,vts_reward_expectancy_OFFLINE,2022.2.4,59.923776118264016,
0,0,0,1,1,0,0,0,star,triangle,0,0,0,0,2,2,26,9,,,,,,,,,,,,,,,,,,,,,,,,,,,,,,,,,,,,,,,,250.90562978300295,250.90562978300295,250.90562978300295,250.90562978300295,250.90562978300295,250.90562978300295,250.90562978300295,250.90562978300295,250.90562978300295,250.90562978300295,l,1.1755178519961191,1,108,0,252.10702758900152,253.60846054599824,,,,,,,,,,,,,,,,,,,,,,,,,,,,,,,,,,,,,,,,,,,,,,,,,,,,,,,,,,,,,,,,,,,,,47150,2022-09-20_10h22.17.720,vts_reward_expectancy_OFFLINE,2022.2.4,59.923776118264016,
1,0,0,0,0,1,0,0,triangle,circle,0,0,0,0,2,3,27,0,,,,,,,,,,,,,,,,,,,,,,,,,,,,,,,,,,,,,,,,254.10900567899807,254.10900567899807,254.10900567899807,254.10900567899807,254.10900567899807,254.10900567899807,254.10900567899807,254.10900567899807,254.10900567899807,254.10900567899807,a,1.052341371003422,1,109,0,255.19376121000096,256.69527427799767,,,,,,,,,,,,,,,,,,,,,,,,,,,,,,,,,,,,,,,,,,,,,,,,,,,,,,,,,,,,,,,,,,,,,47150,2022-09-20_10h22.17.720,vts_reward_expectancy_OFFLINE,2022.2.4,59.923776118264016,
0,0,1,0,1,0,0,0,hexagon,triangle,0,0,0,0,2,4,28,6,,,,,,,,,,,,,,,,,,,,,,,,,,,,,,,,,,,,,,,,257.1958426380006,257.1958426380006,257.1958426380006,257.1958426380006,257.1958426380006,257.1958426380006,257.1958426380006,257.1958426380006,257.1958426380006,257.1958426380006,l,4.917740422999486,1,110,0,262.13442596299865,263.63614917499945,,,,,,,,,,,,,,,,,,,,,,,,,,,,,,,,,,,,,,,,,,,,,,,,,,,,,,,,,,,,,,,,,,,,,47150,2022-09-20_10h22.17.720,vts_reward_expectancy_OFFLINE,2022.2.4,59.923776118264016,
0,1,0,0,1,0,0,0,circle,triangle,0,0,0,0,2,5,29,3,,,,,,,,,,,,,,,,,,,,,,,,,,,,,,,,,,,,,,,,264.13680639099766,264.13680639099766,264.13680639099766,264.13680639099766,264.13680639099766,264.13680639099766,264.13680639099766,264.13680639099766,264.13680639099766,264.13680639099766,a,1.168940139003098,1,111,0,265.33804023300036,266.8397419940011,,,,,,,,,,,,,,,,,,,,,,,,,,,,,,,,,,,,,,,,,,,,,,,,,,,,,,,,,,,,,,,,,,,,,47150,2022-09-20_10h22.17.720,vts_reward_expectancy_OFFLINE,2022.2.4,59.923776118264016,
0,0,1,0,0,1,0,0,hexagon,circle,0,0,0,0,2,6,30,7,,,,,,,,,,,,,,,,,,,,,,,,,,,,,,,,,,,,,,,,267.3402172010028,267.3402172010028,267.3402172010028,267.3402172010028,267.3402172010028,267.3402172010028,267.3402172010028,267.3402172010028,267.3402172010028,267.3402172010028,a,1.4135564789976343,10,121,0,268.77510050300043,270.2769523349998,,,,,,,,,,,,,,,,,,,,,,,,,,,,,,,,,,,,,,,,,,,,,,,,,,,,,,,,,,,,,,,,,,,,,47150,2022-09-20_10h22.17.720,vts_reward_expectancy_OFFLINE,2022.2.4,59.923776118264016,
1,0,0,0,0,0,1,0,triangle,hexagon,0,0,0,0,2,7,31,1,,,,,,,,,,,,,,,,,,,,,,,,,,,,,,,,,,,,,,,,270.7774952109976,270.7774952109976,270.7774952109976,270.7774952109976,270.7774952109976,270.7774952109976,270.7774952109976,270.7774952109976,270.7774952109976,270.7774952109976,a,4.856169532999047,1,122,0,275.6660673860024,277.1677365430005,,,,,,,,,,,,,,,,,,,,,,,,,,,,,,,,,,,,,,,,,,,,,,,,,,,,,,,,,,,,,,,,,,,,,47150,2022-09-20_10h22.17.720,vts_reward_expectancy_OFFLINE,2022.2.4,59.923776118264016,
0,1,0,0,0,0,1,0,circle,hexagon,0,0,0,0,2,8,32,4,,,,,,,,,,,,,,,,,,,,,,,,,,,,,,,,,,,,,,,,277.66834014800406,277.66834014800406,277.66834014800406,277.66834014800406,277.66834014800406,277.66834014800406,277.66834014800406,277.66834014800406,277.66834014800406,277.66834014800406,l,1.6694525419952697,10,132,0,279.37038404600025,280.87170689600316,280.87170689600316,,,,,,,,,,,,,,,,,,,,,,,,,,,,,,,,,,,,,,,,,,,,,,,,,,,,,,,,,,,,,,,,,,,,47150,2022-09-20_10h22.17.720,vts_reward_expectancy_OFFLINE,2022.2.4,59.923776118264016,
0,0,0,1,0,1,0,0,star ,circle,0,0,0,0,2,9,33,10,,,,,,,,,,,,,,,,,,,,,,,,,,,,,,,,,,,,,,,,281.37228347999917,281.37228347999917,281.37228347999917,281.37228347999917,281.37228347999917,281.37228347999917,281.37228347999917,281.37228347999917,281.37228347999917,281.37228347999917,l,2.8447101669953554,10,142,0,284.2423926929987,285.7438420990002,,,,,,,,,,,,,,,,,,,,,,,,,,,,,,,,,,,,,,,,,,,,,,,,,,,,,,,,,,,,,,,,,,,,,47150,2022-09-20_10h22.17.720,vts_reward_expectancy_OFFLINE,2022.2.4,59.923776118264016,
0,1,0,0,0,0,0,1,circle,star,0,0,0,0,2,10,34,5,,,,,,,,,,,,,,,,,,,,,,,,,,,,,,,,,,,,,,,,286.24464050999813,286.24464050999813,286.24464050999813,286.24464050999813,286.24464050999813,286.24464050999813,286.24464050999813,286.24464050999813,286.24464050999813,286.24464050999813,a,2.8865639839932555,1,143,0,289.1474763340011,290.6496169230013,290.6496169230013,,,,,,,,,,,,,,,,,,,,,,,,,,,,,,,,,,,,,,,,,,,,,,,,,,,,,,,,,,,,,,,,,,,,47150,2022-09-20_10h22.17.720,vts_reward_expectancy_OFFLINE,2022.2.4,59.923776118264016,
1,0,0,0,0,0,0,1,triangle,star,0,0,0,0,2,11,35,2,,,,,,,,,,,,,,,,,,,,,,,,,,,,,,,,,,,,,,,,291.150024442999,291.150024442999,291.150024442999,291.150024442999,291.150024442999,291.150024442999,291.150024442999,291.150024442999,291.150024442999,291.150024442999,l,4.12324653199903,10,153,0,295.3045453360028,296.80612622300396,296.80612622300396,297.3233635580036,,,,,,,,,,,,,,,,,,,,,,,,,,,,,,,,,,,,,,,,,,,,,,,,,,,,,,,,,,,,,,,,,,,47150,2022-09-20_10h22.17.720,vts_reward_expectancy_OFFLINE,2022.2.4,59.923776118264016,
0,0,0,1,0,0,1,0,star,hexagon,1,0,1,0,0,0,0,11,,,,,,,,,,,,,,,,,,,,,,,,,,,,,,,,,,,,,,,,304.6981346210014,304.6981346210014,304.6981346210014,304.6981346210014,304.6981346210014,304.6981346210014,304.6981346210014,304.6981346210014,304.6981346210014,304.6981346210014,a,2.1526519790058956,10,163,1,306.86718620500324,308.36892037300277,308.36892037300277,,,,,,,,,,,,,,,,,,,,,,,,,,,,,,,,,,,,,,,,,,,,,,,,,,,,,,,,,,,,,,,,,,,,47150,2022-09-20_10h22.17.720,vts_reward_expectancy_OFFLINE,2022.2.4,59.923776118264016,
1,0,0,0,0,0,0,1,triangle,star,1,0,1,0,0,1,1,2,,,,,,,,,,,,,,,,,,,,,,,,,,,,,,,,,,,,,,,,308.8693744789998,308.8693744789998,308.8693744789998,308.8693744789998,308.8693744789998,308.8693744789998,308.8693744789998,308.8693744789998,308.8693744789998,308.8693744789998,l,1.5641424229979748,1,164,1,310.4546679730047,311.9562915159986,,,,,,,,,,,,,,,,,,,,,,,,,,,,,,,,,,,,,,,,,,,,,,,,,,,,,,,,,,,,,,,,,,,,,47150,2022-09-20_10h22.17.720,vts_reward_expectancy_OFFLINE,2022.2.4,59.923776118264016,
0,1,0,0,0,0,0,1,circle,star,1,0,1,0,0,2,2,5,,,,,,,,,,,,,,,,,,,,,,,,,,,,,,,,,,,,,,,,312.456658203002,312.456658203002,312.456658203002,312.456658203002,312.456658203002,312.456658203002,312.456658203002,312.456658203002,312.456658203002,312.456658203002,l,2.9540476000038325,10,174,1,315.4433072259999,316.9450039299991,,,,,,,,,,,,,,,,,,,,,,,,,,,,,,,,,,,,,,,,,,,,,,,,,,,,,,,,,,,,,,,,,,,,,47150,2022-09-20_10h22.17.720,vts_reward_expectancy_OFFLINE,2022.2.4,59.923776118264016,
1,0,0,0,0,1,0,0,triangle,circle,1,0,1,0,0,3,3,0,,,,,,,,,,,,,,,,,,,,,,,,,,,,,,,,,,,,,,,,317.44550593299937,317.44550593299937,317.44550593299937,317.44550593299937,317.44550593299937,317.44550593299937,317.44550593299937,317.44550593299937,317.44550593299937,317.44550593299937,l,3.838569291998283,10,184,1,321.3166245559987,322.8181127690041,,,,,,,,,,,,,,,,,,,,,,,,,,,,,,,,,,,,,,,,,,,,,,,,,,,,,,,,,,,,,,,,,,,,,47150,2022-09-20_10h22.17.720,vts_reward_expectancy_OFFLINE,2022.2.4,59.923776118264016,
0,0,0,1,1,0,0,0,star,triangle,1,0,1,0,0,4,4,9,,,,,,,,,,,,,,,,,,,,,,,,,,,,,,,,,,,,,,,,323.3185733900027,323.3185733900027,323.3185733900027,323.3185733900027,323.3185733900027,323.3185733900027,323.3185733900027,323.3185733900027,323.3185733900027,323.3185733900027,a,4.546466323001368,10,194,1,327.8902920660039,329.39207638899825,,,,,,,,,,,,,,,,,,,,,,,,,,,,,,,,,,,,,,,,,,,,,,,,,,,,,,,,,,,,,,,,,,,,,47150,2022-09-20_10h22.17.720,vts_reward_expectancy_OFFLINE,2022.2.4,59.923776118264016,
0,1,0,0,1,0,0,0,circle,triangle,1,0,1,0,0,5,5,3,,,,,,,,,,,,,,,,,,,,,,,,,,,,,,,,,,,,,,,,329.8927464389999,329.8927464389999,329.8927464389999,329.8927464389999,329.8927464389999,329.8927464389999,329.8927464389999,329.8927464389999,329.8927464389999,329.8927464389999,a,4.5330665899964515,10,204,1,334.44757478599786,335.9492858759986,,,,,,,,,,,,,,,,,,,,,,,,,,,,,,,,,,,,,,,,,,,,,,,,,,,,,,,,,,,,,,,,,,,,,47150,2022-09-20_10h22.17.720,vts_reward_expectancy_OFFLINE,2022.2.4,59.923776118264016,
1,0,0,0,0,0,1,0,triangle,hexagon,1,0,1,0,0,6,6,1,,,,,,,,,,,,,,,,,,,,,,,,,,,,,,,,,,,,,,,,336.44976780000434,336.44976780000434,336.44976780000434,336.44976780000434,336.44976780000434,336.44976780000434,336.44976780000434,336.44976780000434,336.44976780000434,336.44976780000434,l,17.553413237001223,1,205,1,354.0357395309984,355.537692083999,,,,,,,,,,,,,,,,,,,,,,,,,,,,,,,,,,,,,,,,,,,,,,,,,,,,,,,,,,,,,,,,,,,,,47150,2022-09-20_10h22.17.720,vts_reward_expectancy_OFFLINE,2022.2.4,59.923776118264016,
0,0,1,0,0,0,0,1,hexagon,star,1,0,1,0,0,7,7,8,,,,,,,,,,,,,,,,,,,,,,,,,,,,,,,,,,,,,,,,356.0381884130038,356.0381884130038,356.0381884130038,356.0381884130038,356.0381884130038,356.0381884130038,356.0381884130038,356.0381884130038,356.0381884130038,356.0381884130038,a,9.74770944500051,10,215,1,365.8155346210042,367.3171603139999,,,,,,,,,,,,,,,,,,,,,,,,,,,,,,,,,,,,,,,,,,,,,,,,,,,,,,,,,,,,,,,,,,,,,47150,2022-09-20_10h22.17.720,vts_reward_expectancy_OFFLINE,2022.2.4,59.923776118264016,
0,0,0,1,0,1,0,0,star ,circle,1,0,1,0,0,8,8,10,,,,,,,,,,,,,,,,,,,,,,,,,,,,,,,,,,,,,,,,367.81793761099834,367.81793761099834,367.81793761099834,367.81793761099834,367.81793761099834,367.81793761099834,367.81793761099834,367.81793761099834,367.81793761099834,367.81793761099834,a,4.176271871001518,10,225,1,372.0226238230025,373.52402934500424,,,,,,,,,,,,,,,,,,,,,,,,,,,,,,,,,,,,,,,,,,,,,,,,,,,,,,,,,,,,,,,,,,,,,47150,2022-09-20_10h22.17.720,vts_reward_expectancy_OFFLINE,2022.2.4,59.923776118264016,
0,0,1,0,0,1,0,0,hexagon,circle,1,0,1,0,0,9,9,7,,,,,,,,,,,,,,,,,,,,,,,,,,,,,,,,,,,,,,,,374.02460564800276,374.02460564800276,374.02460564800276,374.02460564800276,374.02460564800276,374.02460564800276,374.02460564800276,374.02460564800276,374.02460564800276,374.02460564800276,l,2.536897649995808,1,226,1,376.5941033889976,378.09574304400303,,,,,,,,,,,,,,,,,,,,,,,,,,,,,,,,,,,,,,,,,,,,,,,,,,,,,,,,,,,,,,,,,,,,,47150,2022-09-20_10h22.17.720,vts_reward_expectancy_OFFLINE,2022.2.4,59.923776118264016,
0,0,1,0,1,0,0,0,hexagon,triangle,1,0,1,0,0,10,10,6,,,,,,,,,,,,,,,,,,,,,,,,,,,,,,,,,,,,,,,,378.59628759000043,378.59628759000043,378.59628759000043,378.59628759000043,378.59628759000043,378.59628759000043,378.59628759000043,378.59628759000043,378.59628759000043,378.59628759000043,a,4.773208226994029,10,236,1,383.4015726200014,384.90339886400034,,,,,,,,,,,,,,,,,,,,,,,,,,,,,,,,,,,,,,,,,,,,,,,,,,,,,,,,,,,,,,,,,,,,,47150,2022-09-20_10h22.17.720,vts_reward_expectancy_OFFLINE,2022.2.4,59.923776118264016,
0,1,0,0,0,0,1,0,circle,hexagon,1,0,1,0,0,11,11,4,,,,,,,,,,,,,,,,,,,,,,,,,,,,,,,,,,,,,,,,385.40372140600084,385.40372140600084,385.40372140600084,385.40372140600084,385.40372140600084,385.40372140600084,385.40372140600084,385.40372140600084,385.40372140600084,385.40372140600084,a,1.6303344620027929,10,246,1,387.0557932410011,388.55730741500156,,,,,,,,,,,,,,,,,,,,,,,,,,,,,,,,,,,,,,,,,,,,,,,,,,,,,,,,,,,,,,,,,,,,,47150,2022-09-20_10h22.17.720,vts_reward_expectancy_OFFLINE,2022.2.4,59.923776118264016,
0,0,1,0,0,0,0,1,hexagon,star,1,0,1,0,1,0,12,8,,,,,,,,,,,,,,,,,,,,,,,,,,,,,,,,,,,,,,,,389.0579684760014,389.0579684760014,389.0579684760014,389.0579684760014,389.0579684760014,389.0579684760014,389.0579684760014,389.0579684760014,389.0579684760014,389.0579684760014,l,3.0006155029986985,1,247,1,392.0795152940045,393.5794888310047,,,,,,,,,,,,,,,,,,,,,,,,,,,,,,,,,,,,,,,,,,,,,,,,,,,,,,,,,,,,,,,,,,,,,47150,2022-09-20_10h22.17.720,vts_reward_expectancy_OFFLINE,2022.2.4,59.923776118264016,
0,1,0,0,1,0,0,0,circle,triangle,1,0,1,0,1,1,13,3,,,,,,,,,,,,,,,,,,,,,,,,,,,,,,,,,,,,,,,,394.0800834490001,394.0800834490001,394.0800834490001,394.0800834490001,394.0800834490001,394.0800834490001,394.0800834490001,394.0800834490001,394.0800834490001,394.0800834490001,a,1.858814737002831,10,257,1,395.965416138999,397.4671672539989,,,,,,,,,,,,,,,,,,,,,,,,,,,,,,,,,,,,,,,,,,,,,,,,,,,,,,,,,,,,,,,,,,,,,47150,2022-09-20_10h22.17.720,vts_reward_expectancy_OFFLINE,2022.2.4,59.923776118264016,
1,0,0,0,0,0,0,1,triangle,star,1,0,1,0,1,2,14,2,,,,,,,,,,,,,,,,,,,,,,,,,,,,,,,,,,,,,,,,397.9677981729983,397.9677981729983,397.9677981729983,397.9677981729983,397.9677981729983,397.9677981729983,397.9677981729983,397.9677981729983,397.9677981729983,397.9677981729983,l,2.0193431630032137,10,267,1,400.01984894600173,401.52164283399907,401.52164283399907,402.0220340349988,,,,,,,,,,,,,,,,,,,,,,,,,,,,,,,,,,,,,,,,,,,,,,,,,,,,,,,,,,,,,,,,,,,47150,2022-09-20_10h22.17.720,vts_reward_expectancy_OFFLINE,2022.2.4,59.923776118264016,
0,0,0,1,0,1,0,0,star ,circle,1,0,1,0,1,3,15,10,,,,,,,,,,,,,,,,,,,,,,,,,,,,,,,,,,,,,,,,402.0220340349988,402.0220340349988,402.0220340349988,402.0220340349988,402.0220340349988,402.0220340349988,402.0220340349988,402.0220340349988,402.0220340349988,402.0220340349988,l,2.37966850399971,1,268,1,404.42497477099823,405.92654945300455,,,,,,,,,,,,,,,,,,,,,,,,,,,,,,,,,,,,,,,,,,,,,,,,,,,,,,,,,,,,,,,,,,,,,47150,2022-09-20_10h22.17.720,vts_reward_expectancy_OFFLINE,2022.2.4,59.923776118264016,
0,1,0,0,0,0,1,0,circle,hexagon,1,0,1,0,1,4,16,4,,,,,,,,,,,,,,,,,,,,,,,,,,,,,,,,,,,,,,,,406.42711212499853,406.42711212499853,406.42711212499853,406.42711212499853,406.42711212499853,406.42711212499853,406.42711212499853,406.42711212499853,406.42711212499853,406.42711212499853,l,5.688003226001456,1,269,1,412.13350460999936,413.6350571840012,,,,,,,,,,,,,,,,,,,,,,,,,,,,,,,,,,,,,,,,,,,,,,,,,,,,,,,,,,,,,,,,,,,,,47150,2022-09-20_10h22.17.720,vts_reward_expectancy_OFFLINE,2022.2.4,59.923776118264016,
0,0,1,0,1,0,0,0,hexagon,triangle,1,0,1,0,1,5,17,6,,,,,,,,,,,,,,,,,,,,,,,,,,,,,,,,,,,,,,,,414.1355222100028,414.1355222100028,414.1355222100028,414.1355222100028,414.1355222100028,414.1355222100028,414.1355222100028,414.1355222100028,414.1355222100028,414.1355222100028,a,1.218830755999079,10,279,1,415.38684703299805,416.8884755629988,,,,,,,,,,,,,,,,,,,,,,,,,,,,,,,,,,,,,,,,,,,,,,,,,,,,,,,,,,,,,,,,,,,,,47150,2022-09-20_10h22.17.720,vts_reward_expectancy_OFFLINE,2022.2.4,59.923776118264016,
0,0,1,0,0,1,0,0,hexagon,circle,1,0,1,0,1,6,18,7,,,,,,,,,,,,,,,,,,,,,,,,,,,,,,,,,,,,,,,,417.3890631680042,417.3890631680042,417.3890631680042,417.3890631680042,417.3890631680042,417.3890631680042,417.3890631680042,417.3890631680042,417.3890631680042,417.3890631680042,a,0.6519843959977152,10,289,1,418.0732099259985,419.5748884440036,,,,,,,,,,,,,,,,,,,,,,,,,,,,,,,,,,,,,,,,,,,,,,,,,,,,,,,,,,,,,,,,,,,,,47150,2022-09-20_10h22.17.720,vts_reward_expectancy_OFFLINE,2022.2.4,59.923776118264016,
1,0,0,0,0,1,0,0,triangle,circle,1,0,1,0,1,7,19,0,,,,,,,,,,,,,,,,,,,,,,,,,,,,,,,,,,,,,,,,420.0753375109998,420.0753375109998,420.0753375109998,420.0753375109998,420.0753375109998,420.0753375109998,420.0753375109998,420.0753375109998,420.0753375109998,420.0753375109998,l,0.3103845020013978,1,290,1,420.40913636000187,421.9106800840018,,,,,,,,,,,,,,,,,,,,,,,,,,,,,,,,,,,,,,,,,,,,,,,,,,,,,,,,,,,,,,,,,,,,,47150,2022-09-20_10h22.17.720,vts_reward_expectancy_OFFLINE,2022.2.4,59.923776118264016,
0,0,0,1,0,0,1,0,star,hexagon,1,0,1,0,1,8,20,11,,,,,,,,,,,,,,,,,,,,,,,,,,,,,,,,,,,,,,,,422.41141547600273,422.41141547600273,422.41141547600273,422.41141547600273,422.41141547600273,422.41141547600273,422.41141547600273,422.41141547600273,422.41141547600273,422.41141547600273,a,1.02267844400194,10,300,1,423.4623549399985,424.9643385210002,,,,,,,,,,,,,,,,,,,,,,,,,,,,,,,,,,,,,,,,,,,,,,,,,,,,,,,,,,,,,,,,,,,,,47150,2022-09-20_10h22.17.720,vts_reward_expectancy_OFFLINE,2022.2.4,59.923776118264016,
0,1,0,0,0,0,0,1,circle,star,1,0,1,0,1,9,21,5,,,,,,,,,,,,,,,,,,,,,,,,,,,,,,,,,,,,,,,,425.46457909900346,425.46457909900346,425.46457909900346,425.46457909900346,425.46457909900346,425.46457909900346,425.46457909900346,425.46457909900346,425.46457909900346,425.46457909900346,l,2.209762378995947,10,310,1,427.7005206680042,429.20225443600066,,,,,,,,,,,,,,,,,,,,,,,,,,,,,,,,,,,,,,,,,,,,,,,,,,,,,,,,,,,,,,,,,,,,,47150,2022-09-20_10h22.17.720,vts_reward_expectancy_OFFLINE,2022.2.4,59.923776118264016,
0,0,0,1,1,0,0,0,star,triangle,1,0,1,0,1,10,22,9,,,,,,,,,,,,,,,,,,,,,,,,,,,,,,,,,,,,,,,,429.70261913799914,429.70261913799914,429.70261913799914,429.70261913799914,429.70261913799914,429.70261913799914,429.70261913799914,429.70261913799914,429.70261913799914,429.70261913799914,l,2.210563569002261,1,311,1,431.9386906639993,433.4401622840014,,,,,,,,,,,,,,,,,,,,,,,,,,,,,,,,,,,,,,,,,,,,,,,,,,,,,,,,,,,,,,,,,,,,,47150,2022-09-20_10h22.17.720,vts_reward_expectancy_OFFLINE,2022.2.4,59.923776118264016,
1,0,0,0,0,0,1,0,triangle,hexagon,1,0,1,0,1,11,23,1,,,,,,,,,,,,,,,,,,,,,,,,,,,,,,,,,,,,,,,,433.94071234500007,433.94071234500007,433.94071234500007,433.94071234500007,433.94071234500007,433.94071234500007,433.94071234500007,433.94071234500007,433.94071234500007,433.94071234500007,a,1.3584047719996306,10,321,1,435.325580869001,436.8272535040014,,,,,,,,,,,,,,,,,,,,,,,,,,,,,,,,,,,,,,,,,,,,,,,,,,,,,,,,,,,,,,,,,,,,,47150,2022-09-20_10h22.17.720,vts_reward_expectancy_OFFLINE,2022.2.4,59.923776118264016,
0,0,1,0,0,1,0,0,hexagon,circle,1,0,1,0,2,0,24,7,,,,,,,,,,,,,,,,,,,,,,,,,,,,,,,,,,,,,,,,437.327696018001,437.327696018001,437.327696018001,437.327696018001,437.327696018001,437.327696018001,437.327696018001,437.327696018001,437.327696018001,437.327696018001,a,1.913285372997052,10,331,1,439.2631459730037,440.76503929500177,,,,,,,,,,,,,,,,,,,,,,,,,,,,,,,,,,,,,,,,,,,,,,,,,,,,,,,,,,,,,,,,,,,,,47150,2022-09-20_10h22.17.720,vts_reward_expectancy_OFFLINE,2022.2.4,59.923776118264016,
0,1,0,0,1,0,0,0,circle,triangle,1,0,1,0,2,1,25,3,,,,,,,,,,,,,,,,,,,,,,,,,,,,,,,,,,,,,,,,441.26540044500143,441.26540044500143,441.26540044500143,441.26540044500143,441.26540044500143,441.26540044500143,441.26540044500143,441.26540044500143,441.26540044500143,441.26540044500143,a,1.7124123570029042,1,332,1,443.0173137200036,444.50216206099867,,,,,,,,,,,,,,,,,,,,,,,,,,,,,,,,,,,,,,,,,,,,,,,,,,,,,,,,,,,,,,,,,,,,,47150,2022-09-20_10h22.17.720,vts_reward_expectancy_OFFLINE,2022.2.4,59.923776118264016,
0,0,1,0,0,0,0,1,hexagon,star,1,0,1,0,2,2,26,8,,,,,,,,,,,,,,,,,,,,,,,,,,,,,,,,,,,,,,,,445.0029988280003,445.0029988280003,445.0029988280003,445.0029988280003,445.0029988280003,445.0029988280003,445.0029988280003,445.0029988280003,445.0029988280003,445.0029988280003,l,4.655365911996341,1,333,1,449.674877726,451.17653037900163,451.17653037900163,,,,,,,,,,,,,,,,,,,,,,,,,,,,,,,,,,,,,,,,,,,,,,,,,,,,,,,,,,,,,,,,,,,,47150,2022-09-20_10h22.17.720,vts_reward_expectancy_OFFLINE,2022.2.4,59.923776118264016,
0,0,0,1,1,0,0,0,star,triangle,1,0,1,0,2,3,27,9,,,,,,,,,,,,,,,,,,,,,,,,,,,,,,,,,,,,,,,,451.6769789090031,451.6769789090031,451.6769789090031,451.6769789090031,451.6769789090031,451.6769789090031,451.6769789090031,451.6769789090031,451.6769789090031,451.6769789090031,a,1.5337277500002529,1,334,1,453.2286019710009,454.73029404500267,,,,,,,,,,,,,,,,,,,,,,,,,,,,,,,,,,,,,,,,,,,,,,,,,,,,,,,,,,,,,,,,,,,,,47150,2022-09-20_10h22.17.720,vts_reward_expectancy_OFFLINE,2022.2.4,59.923776118264016,
0,1,0,0,0,0,0,1,circle,star,1,0,1,0,2,4,28,5,,,,,,,,,,,,,,,,,,,,,,,,,,,,,,,,,,,,,,,,455.230783650004,455.230783650004,455.230783650004,455.230783650004,455.230783650004,455.230783650004,455.230783650004,455.230783650004,455.230783650004,455.230783650004,a,2.554272162000416,1,335,1,457.8171768559987,459.3187057930045,,,,,,,,,,,,,,,,,,,,,,,,,,,,,,,,,,,,,,,,,,,,,,,,,,,,,,,,,,,,,,,,,,,,,47150,2022-09-20_10h22.17.720,vts_reward_expectancy_OFFLINE,2022.2.4,59.923776118264016,
0,0,0,1,0,0,1,0,star,hexagon,1,0,1,0,2,5,29,11,,,,,,,,,,,,,,,,,,,,,,,,,,,,,,,,,,,,,,,,459.8192836860035,459.8192836860035,459.8192836860035,459.8192836860035,459.8192836860035,459.8192836860035,459.8192836860035,459.8192836860035,459.8192836860035,459.8192836860035,l,0.9020857350042206,10,345,1,460.75364798100054,462.2554195010016,462.2554195010016,462.75591217500187,,,,,,,,,,,,,,,,,,,,,,,,,,,,,,,,,,,,,,,,,,,,,,,,,,,,,,,,,,,,,,,,,,,47150,2022-09-20_10h22.17.720,vts_reward_expectancy_OFFLINE,2022.2.4,59.923776118264016,
0,0,0,1,0,1,0,0,star ,circle,1,0,1,0,2,6,30,10,,,,,,,,,,,,,,,,,,,,,,,,,,,,,,,,,,,,,,,,462.75591217500187,462.75591217500187,462.75591217500187,462.75591217500187,462.75591217500187,462.75591217500187,462.75591217500187,462.75591217500187,462.75591217500187,462.75591217500187,a,7.9754697359967395,10,355,1,470.74815710799885,472.2495921400041,472.2495921400041,,,,,,,,,,,,,,,,,,,,,,,,,,,,,,,,,,,,,,,,,,,,,,,,,,,,,,,,,,,,,,,,,,,,47150,2022-09-20_10h22.17.720,vts_reward_expectancy_OFFLINE,2022.2.4,59.923776118264016,
1,0,0,0,0,0,0,1,triangle,star,1,0,1,0,2,7,31,2,,,,,,,,,,,,,,,,,,,,,,,,,,,,,,,,,,,,,,,,472.7503869200009,472.7503869200009,472.7503869200009,472.7503869200009,472.7503869200009,472.7503869200009,472.7503869200009,472.7503869200009,472.7503869200009,472.7503869200009,l,5.331763621994469,10,365,1,478.10639675999846,479.60767241400026,,,,,,,,,,,,,,,,,,,,,,,,,,,,,,,,,,,,,,,,,,,,,,,,,,,,,,,,,,,,,,,,,,,,,47150,2022-09-20_10h22.17.720,vts_reward_expectancy_OFFLINE,2022.2.4,59.923776118264016,
1,0,0,0,0,1,0,0,triangle,circle,1,0,1,0,2,8,32,0,,,,,,,,,,,,,,,,,,,,,,,,,,,,,,,,,,,,,,,,480.10824782900454,480.10824782900454,480.10824782900454,480.10824782900454,480.10824782900454,480.10824782900454,480.10824782900454,480.10824782900454,480.10824782900454,480.10824782900454,a,5.684990582994942,10,375,1,485.8147248950045,487.3162649750011,,,,,,,,,,,,,,,,,,,,,,,,,,,,,,,,,,,,,,,,,,,,,,,,,,,,,,,,,,,,,,,,,,,,,47150,2022-09-20_10h22.17.720,vts_reward_expectancy_OFFLINE,2022.2.4,59.923776118264016,
0,0,1,0,1,0,0,0,hexagon,triangle,1,0,1,0,2,9,33,6,,,,,,,,,,,,,,,,,,,,,,,,,,,,,,,,,,,,,,,,487.8168653629982,487.8168653629982,487.8168653629982,487.8168653629982,487.8168653629982,487.8168653629982,487.8168653629982,487.8168653629982,487.8168653629982,487.8168653629982,a,4.064908321997791,10,385,1,491.90469169500284,493.40647208000155,,,,,,,,,,,,,,,,,,,,,,,,,,,,,,,,,,,,,,,,,,,,,,,,,,,,,,,,,,,,,,,,,,,,,47150,2022-09-20_10h22.17.720,vts_reward_expectancy_OFFLINE,2022.2.4,59.923776118264016,
1,0,0,0,0,0,1,0,triangle,hexagon,1,0,1,0,2,10,34,1,,,,,,,,,,,,,,,,,,,,,,,,,,,,,,,,,,,,,,,,493.9067811749992,493.9067811749992,493.9067811749992,493.9067811749992,493.9067811749992,493.9067811749992,493.9067811749992,493.9067811749992,493.9067811749992,493.9067811749992,l,1.7108554860024014,10,395,1,495.6421837029993,497.143922645002,,,,,,,,,,,,,,,,,,,,,,,,,,,,,,,,,,,,,,,,,,,,,,,,,,,,,,,,,,,,,,,,,,,,,47150,2022-09-20_10h22.17.720,vts_reward_expectancy_OFFLINE,2022.2.4,59.923776118264016,
0,1,0,0,0,0,1,0,circle,hexagon,1,0,1,0,2,11,35,4,,,,,,,,,,,,,,,,,,,,,,,,,,,,,,,,,,,,,,,,497.6443102580015,497.6443102580015,497.6443102580015,497.6443102580015,497.6443102580015,497.6443102580015,497.6443102580015,497.6443102580015,497.6443102580015,497.6443102580015,a,4.189144935997319,1,396,1,501.8656267660044,503.3674347230044,,,,,,,,,,,,,,,,,,,,,,,,,,,,,,,,,,,,,,,,,,,,,,,,,,,,,,,,,,,,,,,,,,,,,47150,2022-09-20_10h22.17.720,vts_reward_expectancy_OFFLINE,2022.2.4,59.923776118264016,
1,0,0,0,0,1,0,0,triangle,circle,2,0,2,0,0,0,0,0,,,,,,,,,,,,,,,,,,,,,,,,,,,,,,,,,,,,,,,,507.7736246700006,507.7736246700006,507.7736246700006,507.7736246700006,507.7736246700006,507.7736246700006,507.7736246700006,507.7736246700006,507.7736246700006,507.7736246700006,l,1.8279365740017965,1,397,2,509.624237516,511.125819769004,,,,,,,,,,,,,,,,,,,,,,,,,,,,,,,,,,,,,,,,,,,,,,,,,,,,,,,,,,,,,,,,,,,,,47150,2022-09-20_10h22.17.720,vts_reward_expectancy_OFFLINE,2022.2.4,59.923776118264016,
0,0,0,1,0,1,0,0,star ,circle,2,0,2,0,0,1,1,10,,,,,,,,,,,,,,,,,,,,,,,,,,,,,,,,,,,,,,,,511.6265959200027,511.6265959200027,511.6265959200027,511.6265959200027,511.6265959200027,511.6265959200027,511.6265959200027,511.6265959200027,511.6265959200027,511.6265959200027,a,0.6705180659992038,1,398,2,512.3273572590042,513.8289920239986,,,,,,,,,,,,,,,,,,,,,,,,,,,,,,,,,,,,,,,,,,,,,,,,,,,,,,,,,,,,,,,,,,,,,47150,2022-09-20_10h22.17.720,vts_reward_expectancy_OFFLINE,2022.2.4,59.923776118264016,
1,0,0,0,0,0,0,1,triangle,star,2,0,2,0,0,2,2,2,,,,,,,,,,,,,,,,,,,,,,,,,,,,,,,,,,,,,,,,514.3296137590005,514.3296137590005,514.3296137590005,514.3296137590005,514.3296137590005,514.3296137590005,514.3296137590005,514.3296137590005,514.3296137590005,514.3296137590005,l,1.3853073220016086,1,399,2,515.7477256580023,517.2493370650045,,,,,,,,,,,,,,,,,,,,,,,,,,,,,,,,,,,,,,,,,,,,,,,,,,,,,,,,,,,,,,,,,,,,,47150,2022-09-20_10h22.17.720,vts_reward_expectancy_OFFLINE,2022.2.4,59.923776118264016,
1,0,0,0,0,0,1,0,triangle,hexagon,2,0,2,0,0,3,3,1,,,,,,,,,,,,,,,,,,,,,,,,,,,,,,,,,,,,,,,,517.749830970999,517.749830970999,517.749830970999,517.749830970999,517.749830970999,517.749830970999,517.749830970999,517.749830970999,517.749830970999,517.749830970999,a,1.3400741909936187,1,400,2,519.1180762360018,520.6197641809995,,,,,,,,,,,,,,,,,,,,,,,,,,,,,,,,,,,,,,,,,,,,,,,,,,,,,,,,,,,,,,,,,,,,,47150,2022-09-20_10h22.17.720,vts_reward_expectancy_OFFLINE,2022.2.4,59.923776118264016,
0,1,0,0,0,0,1,0,circle,hexagon,2,0,2,0,0,4,4,4,,,,,,,,,,,,,,,,,,,,,,,,,,,,,,,,,,,,,,,,521.1204139350011,521.1204139350011,521.1204139350011,521.1204139350011,521.1204139350011,521.1204139350011,521.1204139350011,521.1204139350011,521.1204139350011,521.1204139350011,l,2.22590048800339,10,410,2,523.3727023500032,524.874367604003,,,,,,,,,,,,,,,,,,,,,,,,,,,,,,,,,,,,,,,,,,,,,,,,,,,,,,,,,,,,,,,,,,,,,47150,2022-09-20_10h22.17.720,vts_reward_expectancy_OFFLINE,2022.2.4,59.923776118264016,
0,1,0,0,1,0,0,0,circle,triangle,2,0,2,0,0,5,5,3,,,,,,,,,,,,,,,,,,,,,,,,,,,,,,,,,,,,,,,,525.3751530709997,525.3751530709997,525.3751530709997,525.3751530709997,525.3751530709997,525.3751530709997,525.3751530709997,525.3751530709997,525.3751530709997,525.3751530709997,l,2.2906083819980267,1,411,2,527.6942461500003,529.1960469890037,,,,,,,,,,,,,,,,,,,,,,,,,,,,,,,,,,,,,,,,,,,,,,,,,,,,,,,,,,,,,,,,,,,,,47150,2022-09-20_10h22.17.720,vts_reward_expectancy_OFFLINE,2022.2.4,59.923776118264016,
0,0,0,1,1,0,0,0,star,triangle,2,0,2,0,0,6,6,9,,,,,,,,,,,,,,,,,,,,,,,,,,,,,,,,,,,,,,,,529.6965562330006,529.6965562330006,529.6965562330006,529.6965562330006,529.6965562330006,529.6965562330006,529.6965562330006,529.6965562330006,529.6965562330006,529.6965562330006,a,1.0344039209958282,10,421,2,530.7476081740024,532.249367673001,532.249367673001,,,,,,,,,,,,,,,,,,,,,,,,,,,,,,,,,,,,,,,,,,,,,,,,,,,,,,,,,,,,,,,,,,,,47150,2022-09-20_10h22.17.720,vts_reward_expectancy_OFFLINE,2022.2.4,59.923776118264016,
0,0,0,1,0,0,1,0,star,hexagon,2,0,2,0,0,7,7,11,,,,,,,,,,,,,,,,,,,,,,,,,,,,,,,,,,,,,,,,532.7497465929991,532.7497465929991,532.7497465929991,532.7497465929991,532.7497465929991,532.7497465929991,532.7497465929991,532.7497465929991,532.7497465929991,532.7497465929991,a,3.060550920999958,1,422,2,535.8365072590022,537.3382227030015,,,,,,,,,,,,,,,,,,,,,,,,,,,,,,,,,,,,,,,,,,,,,,,,,,,,,,,,,,,,,,,,,,,,,47150,2022-09-20_10h22.17.720,vts_reward_expectancy_OFFLINE,2022.2.4,59.923776118264016,
0,1,0,0,0,0,0,1,circle,star,2,0,2,0,0,8,8,5,,,,,,,,,,,,,,,,,,,,,,,,,,,,,,,,,,,,,,,,537.8385720130027,537.8385720130027,537.8385720130027,537.8385720130027,537.8385720130027,537.8385720130027,537.8385720130027,537.8385720130027,537.8385720130027,537.8385720130027,a,2.1632324070014874,1,423,2,540.0249776600031,541.5259995939996,,,,,,,,,,,,,,,,,,,,,,,,,,,,,,,,,,,,,,,,,,,,,,,,,,,,,,,,,,,,,,,,,,,,,47150,2022-09-20_10h22.17.720,vts_reward_expectancy_OFFLINE,2022.2.4,59.923776118264016,
0,0,1,0,0,1,0,0,hexagon,circle,2,0,2,0,0,9,9,7,,,,,,,,,,,,,,,,,,,,,,,,,,,,,,,,,,,,,,,,542.0266100599983,542.0266100599983,542.0266100599983,542.0266100599983,542.0266100599983,542.0266100599983,542.0266100599983,542.0266100599983,542.0266100599983,542.0266100599983,l,0.4082027990007191,1,424,2,542.4604370759989,543.962282956003,,,,,,,,,,,,,,,,,,,,,,,,,,,,,,,,,,,,,,,,,,,,,,,,,,,,,,,,,,,,,,,,,,,,,47150,2022-09-20_10h22.17.720,vts_reward_expectancy_OFFLINE,2022.2.4,59.923776118264016,
0,0,1,0,0,0,0,1,hexagon,star,2,0,2,0,0,10,10,8,,,,,,,,,,,,,,,,,,,,,,,,,,,,,,,,,,,,,,,,544.4629255780019,544.4629255780019,544.4629255780019,544.4629255780019,544.4629255780019,544.4629255780019,544.4629255780019,544.4629255780019,544.4629255780019,544.4629255780019,a,0.43481849799718475,1,425,2,544.9297983950019,546.431526635999,,,,,,,,,,,,,,,,,,,,,,,,,,,,,,,,,,,,,,,,,,,,,,,,,,,,,,,,,,,,,,,,,,,,,47150,2022-09-20_10h22.17.720,vts_reward_expectancy_OFFLINE,2022.2.4,59.923776118264016,
0,0,1,0,1,0,0,0,hexagon,triangle,2,0,2,0,0,11,11,6,,,,,,,,,,,,,,,,,,,,,,,,,,,,,,,,,,,,,,,,546.9321887699989,546.9321887699989,546.9321887699989,546.9321887699989,546.9321887699989,546.9321887699989,546.9321887699989,546.9321887699989,546.9321887699989,546.9321887699989,l,0.9019416770024691,1,426,2,547.8662344199984,549.368083663001,,,,,,,,,,,,,,,,,,,,,,,,,,,,,,,,,,,,,,,,,,,,,,,,,,,,,,,,,,,,,,,,,,,,,47150,2022-09-20_10h22.17.720,vts_reward_expectancy_OFFLINE,2022.2.4,59.923776118264016,
0,0,0,1,1,0,0,0,star,triangle,2,0,2,0,1,0,12,9,,,,,,,,,,,,,,,,,,,,,,,,,,,,,,,,,,,,,,,,549.8685463830043,549.8685463830043,549.8685463830043,549.8685463830043,549.8685463830043,549.8685463830043,549.8685463830043,549.8685463830043,549.8685463830043,549.8685463830043,a,0.6205272219958715,1,427,2,550.5193438429997,552.0211138790037,,,,,,,,,,,,,,,,,,,,,,,,,,,,,,,,,,,,,,,,,,,,,,,,,,,,,,,,,,,,,,,,,,,,,47150,2022-09-20_10h22.17.720,vts_reward_expectancy_OFFLINE,2022.2.4,59.923776118264016,
1,0,0,0,0,0,1,0,triangle,hexagon,2,0,2,0,1,1,13,1,,,,,,,,,,,,,,,,,,,,,,,,,,,,,,,,,,,,,,,,552.521702334001,552.521702334001,552.521702334001,552.521702334001,552.521702334001,552.521702334001,552.521702334001,552.521702334001,552.521702334001,552.521702334001,l,0.21780787700117799,1,428,2,552.7717777529979,554.2734329509985,,,,,,,,,,,,,,,,,,,,,,,,,,,,,,,,,,,,,,,,,,,,,,,,,,,,,,,,,,,,,,,,,,,,,47150,2022-09-20_10h22.17.720,vts_reward_expectancy_OFFLINE,2022.2.4,59.923776118264016,
0,1,0,0,0,0,1,0,circle,hexagon,2,0,2,0,1,2,14,4,,,,,,,,,,,,,,,,,,,,,,,,,,,,,,,,,,,,,,,,554.774033998001,554.774033998001,554.774033998001,554.774033998001,554.774033998001,554.774033998001,554.774033998001,554.774033998001,554.774033998001,554.774033998001,a,0.651435143998242,10,438,2,555.4580338230007,556.9597129930044,,,,,,,,,,,,,,,,,,,,,,,,,,,,,,,,,,,,,,,,,,,,,,,,,,,,,,,,,,,,,,,,,,,,,47150,2022-09-20_10h22.17.720,vts_reward_expectancy_OFFLINE,2022.2.4,59.923776118264016,
0,1,0,0,0,0,0,1,circle,star,2,0,2,0,1,3,15,5,,,,,,,,,,,,,,,,,,,,,,,,,,,,,,,,,,,,,,,,557.4603734030024,557.4603734030024,557.4603734030024,557.4603734030024,557.4603734030024,557.4603734030024,557.4603734030024,557.4603734030024,557.4603734030024,557.4603734030024,a,1.2133010610050405,10,448,2,558.6950087980003,560.1966113239978,,,,,,,,,,,,,,,,,,,,,,,,,,,,,,,,,,,,,,,,,,,,,,,,,,,,,,,,,,,,,,,,,,,,,47150,2022-09-20_10h22.17.720,vts_reward_expectancy_OFFLINE,2022.2.4,59.923776118264016,
1,0,0,0,0,1,0,0,triangle,circle,2,0,2,0,1,4,16,0,,,,,,,,,,,,,,,,,,,,,,,,,,,,,,,,,,,,,,,,560.697194679,560.697194679,560.697194679,560.697194679,560.697194679,560.697194679,560.697194679,560.697194679,560.697194679,560.697194679,l,0.9599761290010065,10,458,2,561.6814919649987,563.1834046389995,,,,,,,,,,,,,,,,,,,,,,,,,,,,,,,,,,,,,,,,,,,,,,,,,,,,,,,,,,,,,,,,,,,,,47150,2022-09-20_10h22.17.720,vts_reward_expectancy_OFFLINE,2022.2.4,59.923776118264016,
0,0,1,0,1,0,0,0,hexagon,triangle,2,0,2,0,1,5,17,6,,,,,,,,,,,,,,,,,,,,,,,,,,,,,,,,,,,,,,,,563.6838520430028,563.6838520430028,563.6838520430028,563.6838520430028,563.6838520430028,563.6838520430028,563.6838520430028,563.6838520430028,563.6838520430028,563.6838520430028,a,4.846706218995678,10,468,2,568.5556809240006,570.0573952429986,,,,,,,,,,,,,,,,,,,,,,,,,,,,,,,,,,,,,,,,,,,,,,,,,,,,,,,,,,,,,,,,,,,,,47150,2022-09-20_10h22.17.720,vts_reward_expectancy_OFFLINE,2022.2.4,59.923776118264016,
0,0,1,0,0,0,0,1,hexagon,star,2,0,2,0,1,6,18,8,,,,,,,,,,,,,,,,,,,,,,,,,,,,,,,,,,,,,,,,570.5582576660017,570.5582576660017,570.5582576660017,570.5582576660017,570.5582576660017,570.5582576660017,570.5582576660017,570.5582576660017,570.5582576660017,570.5582576660017,l,0.8030855089964462,1,469,2,571.3924024259977,572.8939941760036,,,,,,,,,,,,,,,,,,,,,,,,,,,,,,,,,,,,,,,,,,,,,,,,,,,,,,,,,,,,,,,,,,,,,47150,2022-09-20_10h22.17.720,vts_reward_expectancy_OFFLINE,2022.2.4,59.923776118264016,
0,0,1,0,0,1,0,0,hexagon,circle,2,0,2,0,1,7,19,7,,,,,,,,,,,,,,,,,,,,,,,,,,,,,,,,,,,,,,,,573.3947112649985,573.3947112649985,573.3947112649985,573.3947112649985,573.3947112649985,573.3947112649985,573.3947112649985,573.3947112649985,573.3947112649985,573.3947112649985,a,0.44758301499678055,10,479,2,573.8617355559982,575.3632910810047,,,,,,,,,,,,,,,,,,,,,,,,,,,,,,,,,,,,,,,,,,,,,,,,,,,,,,,,,,,,,,,,,,,,,47150,2022-09-20_10h22.17.720,vts_reward_expectancy_OFFLINE,2022.2.4,59.923776118264016,
0,0,0,1,0,1,0,0,star ,circle,2,0,2,0,1,8,20,10,,,,,,,,,,,,,,,,,,,,,,,,,,,,,,,,,,,,,,,,575.8641136639999,575.8641136639999,575.8641136639999,575.8641136639999,575.8641136639999,575.8641136639999,575.8641136639999,575.8641136639999,575.8641136639999,575.8641136639999,a,0.6259535370045342,10,489,2,576.514888579004,578.0164702980037,,,,,,,,,,,,,,,,,,,,,,,,,,,,,,,,,,,,,,,,,,,,,,,,,,,,,,,,,,,,,,,,,,,,,47150,2022-09-20_10h22.17.720,vts_reward_expectancy_OFFLINE,2022.2.4,59.923776118264016,
1,0,0,0,0,0,0,1,triangle,star,2,0,2,0,1,9,21,2,,,,,,,,,,,,,,,,,,,,,,,,,,,,,,,,,,,,,,,,578.5170868490022,578.5170868490022,578.5170868490022,578.5170868490022,578.5170868490022,578.5170868490022,578.5170868490022,578.5170868490022,578.5170868490022,578.5170868490022,a,0.6610602639993886,1,490,2,579.2179100650028,580.7027112450014,,,,,,,,,,,,,,,,,,,,,,,,,,,,,,,,,,,,,,,,,,,,,,,,,,,,,,,,,,,,,,,,,,,,,47150,2022-09-20_10h22.17.720,vts_reward_expectancy_OFFLINE,2022.2.4,59.923776118264016,
0,1,0,0,1,0,0,0,circle,triangle,2,0,2,0,1,10,22,3,,,,,,,,,,,,,,,,,,,,,,,,,,,,,,,,,,,,,,,,581.2031390100019,581.2031390100019,581.2031390100019,581.2031390100019,581.2031390100019,581.2031390100019,581.2031390100019,581.2031390100019,581.2031390100019,581.2031390100019,l,1.3592216940014623,1,491,2,582.5882494129983,584.0896048740033,,,,,,,,,,,,,,,,,,,,,,,,,,,,,,,,,,,,,,,,,,,,,,,,,,,,,,,,,,,,,,,,,,,,,47150,2022-09-20_10h22.17.720,vts_reward_expectancy_OFFLINE,2022.2.4,59.923776118264016,
0,0,0,1,0,0,1,0,star,hexagon,2,0,2,0,1,11,23,11,,,,,,,,,,,,,,,,,,,,,,,,,,,,,,,,,,,,,,,,584.5902583930001,584.5902583930001,584.5902583930001,584.5902583930001,584.5902583930001,584.5902583930001,584.5902583930001,584.5902583930001,584.5902583930001,584.5902583930001,a,0.6844443649970344,1,492,2,585.2909863160021,586.7927999259991,586.7927999259991,,,,,,,,,,,,,,,,,,,,,,,,,,,,,,,,,,,,,,,,,,,,,,,,,,,,,,,,,,,,,,,,,,,,47150,2022-09-20_10h22.17.720,vts_reward_expectancy_OFFLINE,2022.2.4,59.923776118264016,
0,1,0,0,0,0,0,1,circle,star,2,0,2,0,2,0,24,5,,,,,,,,,,,,,,,,,,,,,,,,,,,,,,,,,,,,,,,,587.2931743349982,587.2931743349982,587.2931743349982,587.2931743349982,587.2931743349982,587.2931743349982,587.2931743349982,587.2931743349982,587.2931743349982,587.2931743349982,l,0.5492890999958036,1,493,2,587.8606395030001,589.362122737999,,,,,,,,,,,,,,,,,,,,,,,,,,,,,,,,,,,,,,,,,,,,,,,,,,,,,,,,,,,,,,,,,,,,,47150,2022-09-20_10h22.17.720,vts_reward_expectancy_OFFLINE,2022.2.4,59.923776118264016,
1,0,0,0,0,0,0,1,triangle,star,2,0,2,0,2,1,25,2,,,,,,,,,,,,,,,,,,,,,,,,,,,,,,,,,,,,,,,,589.8626548190005,589.8626548190005,589.8626548190005,589.8626548190005,589.8626548190005,589.8626548190005,589.8626548190005,589.8626548190005,589.8626548190005,589.8626548190005,a,0.3156184609979391,1,494,2,590.1963771730007,591.6980404490023,,,,,,,,,,,,,,,,,,,,,,,,,,,,,,,,,,,,,,,,,,,,,,,,,,,,,,,,,,,,,,,,,,,,,47150,2022-09-20_10h22.17.720,vts_reward_expectancy_OFFLINE,2022.2.4,59.923776118264016,
0,1,0,0,1,0,0,0,circle,triangle,2,0,2,0,2,2,26,3,,,,,,,,,,,,,,,,,,,,,,,,,,,,,,,,,,,,,,,,592.1985962460021,592.1985962460021,592.1985962460021,592.1985962460021,592.1985962460021,592.1985962460021,592.1985962460021,592.1985962460021,592.1985962460021,592.1985962460021,a,0.8516428509974503,10,504,2,593.0828363399996,594.5846953360015,,,,,,,,,,,,,,,,,,,,,,,,,,,,,,,,,,,,,,,,,,,,,,,,,,,,,,,,,,,,,,,,,,,,,47150,2022-09-20_10h22.17.720,vts_reward_expectancy_OFFLINE,2022.2.4,59.923776118264016,
0,0,0,1,0,1,0,0,star ,circle,2,0,2,0,2,3,27,10,,,,,,,,,,,,,,,,,,,,,,,,,,,,,,,,,,,,,,,,595.0852522610003,595.0852522610003,595.0852522610003,595.0852522610003,595.0852522610003,595.0852522610003,595.0852522610003,595.0852522610003,595.0852522610003,595.0852522610003,a,3.4610220920003485,10,514,2,598.5724077499981,600.0740819530038,,,,,,,,,,,,,,,,,,,,,,,,,,,,,,,,,,,,,,,,,,,,,,,,,,,,,,,,,,,,,,,,,,,,,47150,2022-09-20_10h22.17.720,vts_reward_expectancy_OFFLINE,2022.2.4,59.923776118264016,
0,1,0,0,0,0,1,0,circle,hexagon,2,0,2,0,2,4,28,4,,,,,,,,,,,,,,,,,,,,,,,,,,,,,,,,,,,,,,,,600.574463736004,600.574463736004,600.574463736004,600.574463736004,600.574463736004,600.574463736004,600.574463736004,600.574463736004,600.574463736004,600.574463736004,a,0.7794993220013566,10,524,2,601.3756831409992,602.8770149679985,,,,,,,,,,,,,,,,,,,,,,,,,,,,,,,,,,,,,,,,,,,,,,,,,,,,,,,,,,,,,,,,,,,,,47150,2022-09-20_10h22.17.720,vts_reward_expectancy_OFFLINE,2022.2.4,59.923776118264016,
0,0,0,1,0,0,1,0,star,hexagon,2,0,2,0,2,5,29,11,,,,,,,,,,,,,,,,,,,,,,,,,,,,,,,,,,,,,,,,603.377573755999,603.377573755999,603.377573755999,603.377573755999,603.377573755999,603.377573755999,603.377573755999,603.377573755999,603.377573755999,603.377573755999,a,1.096429805002117,10,534,2,604.4961909310005,605.9971982040006,,,,,,,,,,,,,,,,,,,,,,,,,,,,,,,,,,,,,,,,,,,,,,,,,,,,,,,,,,,,,,,,,,,,,47150,2022-09-20_10h22.17.720,vts_reward_expectancy_OFFLINE,2022.2.4,59.923776118264016,
1,0,0,0,0,0,1,0,triangle,hexagon,2,0,2,0,2,6,30,1,,,,,,,,,,,,,,,,,,,,,,,,,,,,,,,,,,,,,,,,606.4973391450039,606.4973391450039,606.4973391450039,606.4973391450039,606.4973391450039,606.4973391450039,606.4973391450039,606.4973391450039,606.4973391450039,606.4973391450039,l,5.256968450994464,10,544,2,611.7871073830029,613.2887150410024,613.2887150410024,613.7893960729998,,,,,,,,,,,,,,,,,,,,,,,,,,,,,,,,,,,,,,,,,,,,,,,,,,,,,,,,,,,,,,,,,,,47150,2022-09-20_10h22.17.720,vts_reward_expectancy_OFFLINE,2022.2.4,59.923776118264016,
1,0,0,0,0,1,0,0,triangle,circle,2,0,2,0,2,7,31,0,,,,,,,,,,,,,,,,,,,,,,,,,,,,,,,,,,,,,,,,613.7893960729998,613.7893960729998,613.7893960729998,613.7893960729998,613.7893960729998,613.7893960729998,613.7893960729998,613.7893960729998,613.7893960729998,613.7893960729998,a,2.5716673459974118,1,545,2,616.3922262199994,617.8937113290012,,,,,,,,,,,,,,,,,,,,,,,,,,,,,,,,,,,,,,,,,,,,,,,,,,,,,,,,,,,,,,,,,,,,,47150,2022-09-20_10h22.17.720,vts_reward_expectancy_OFFLINE,2022.2.4,59.923776118264016,
0,0,1,0,0,1,0,0,hexagon,circle,2,0,2,0,2,8,32,7,,,,,,,,,,,,,,,,,,,,,,,,,,,,,,,,,,,,,,,,618.3942804090038,618.3942804090038,618.3942804090038,618.3942804090038,618.3942804090038,618.3942804090038,618.3942804090038,618.3942804090038,618.3942804090038,618.3942804090038,a,1.6716814269966562,10,555,2,620.0963363480041,621.5976589990023,621.5976589990023,622.0983553609985,,,,,,,,,,,,,,,,,,,,,,,,,,,,,,,,,,,,,,,,,,,,,,,,,,,,,,,,,,,,,,,,,,,47150,2022-09-20_10h22.17.720,vts_reward_expectancy_OFFLINE,2022.2.4,59.923776118264016,
0,0,0,1,1,0,0,0,star,triangle,2,0,2,0,2,9,33,9,,,,,,,,,,,,,,,,,,,,,,,,,,,,,,,,,,,,,,,,622.0983553609985,622.0983553609985,622.0983553609985,622.0983553609985,622.0983553609985,622.0983553609985,622.0983553609985,622.0983553609985,622.0983553609985,622.0983553609985,a,1.3192491049994715,10,565,2,623.4496821150024,624.9514733250035,624.9514733250035,625.4521239460009,,,,,,,,,,,,,,,,,,,,,,,,,,,,,,,,,,,,,,,,,,,,,,,,,,,,,,,,,,,,,,,,,,,47150,2022-09-20_10h22.17.720,vts_reward_expectancy_OFFLINE,2022.2.4,59.923776118264016,
0,0,1,0,0,0,0,1,hexagon,star,2,0,2,0,2,10,34,8,,,,,,,,,,,,,,,,,,,,,,,,,,,,,,,,,,,,,,,,625.4521239460009,625.4521239460009,625.4521239460009,625.4521239460009,625.4521239460009,625.4521239460009,625.4521239460009,625.4521239460009,625.4521239460009,625.4521239460009,l,1.8215400710032554,10,575,2,627.3039832909999,628.8057679749982,628.8057679749982,629.3062420990027,,,,,,,,,,,,,,,,,,,,,,,,,,,,,,,,,,,,,,,,,,,,,,,,,,,,,,,,,,,,,,,,,,,47150,2022-09-20_10h22.17.720,vts_reward_expectancy_OFFLINE,2022.2.4,59.923776118264016,
0,0,1,0,1,0,0,0,hexagon,triangle,2,0,2,0,2,11,35,6,,,,,,,,,,,,,,,,,,,,,,,,,,,,,,,,,,,,,,,,629.3062420990027,629.3062420990027,629.3062420990027,629.3062420990027,629.3062420990027,629.3062420990027,629.3062420990027,629.3062420990027,629.3062420990027,629.3062420990027,a,8.111045124998782,10,585,2,637.4486270060006,638.9503631510015,,,,,,,,,,,,,,,,,,,,,,,,,,,,,,,,,,,,,,,,,,,,,,,,,,,,,,,,,,,,,,,,,,,,,47150,2022-09-20_10h22.17.720,vts_reward_expectancy_OFFLINE,2022.2.4,59.923776118264016,
,,,,,,,,,,,,,,,,,,0,0,0,0,0,0,0,0,,,,,,,,,,,,,,,,,,,,,,,,,,,,,,,,,,,,,,,,,,,,,,,,791.0012561350013,,,167,D,star,0.0011986259996774606,786.7475375590002,788.2482016350041,788.2482016350041,788.2482016350041,1,0,f,1.2259243360022083,0,789.5165392760027,,,,,,,,,,,,,,,,,,,,,,,,,,,,,,,,,,,,,,,,,,,,,,,,,,,,,47150,2022-09-20_10h22.17.720,vts_reward_expectancy_OFFLINE,2022.2.4,59.923776118264016,
,,,,,,,,,,,,,,,,,,0,0,0,0,1,0,1,0,,,,,,,,,,,,,,,,,,,,,,,,,,,,,,,,,,,,,,,,,,,,,,,,796.0068528499978,,,132,U,circle,0.001293240005907137,791.9857936810004,793.4873490660029,793.4873490660029,793.4873490660029,1,0,d,0.9948982299974887,0,794.5051109390042,,,,,,,,,,,,,,,,,,,,,,,,,,,,,,,,,,,,,,,,,,,,,,,,,,,,,47150,2022-09-20_10h22.17.720,vts_reward_expectancy_OFFLINE,2022.2.4,59.923776118264016,
,,,,,,,,,,,,,,,,,,0,0,0,0,2,0,2,0,,,,,,,,,,,,,,,,,,,,,,,,,,,,,,,,,,,,,,,,,,,,,,,,800.6955413160031,,,125,F,hexagon,0.0014106859962339513,796.9913864150003,798.493070124001,798.493070124001,798.493070124001,1,0,d,0.6684148049971554,0,799.1938216859999,,,,,,,,,,,,,,,,,,,,,,,,,,,,,,,,,,,,,,,,,,,,,,,,,,,,,47150,2022-09-20_10h22.17.720,vts_reward_expectancy_OFFLINE,2022.2.4,59.923776118264016,
,,,,,,,,,,,,,,,,,,0,0,0,0,3,0,3,0,,,,,,,,,,,,,,,,,,,,,,,,,,,,,,,,,,,,,,,,,,,,,,,,805.6841596380036,,,174,W,triangle,0.0012385760055622086,801.6795995080029,803.181318693998,803.181318693998,803.181318693998,1,0,f,0.9741617289982969,0,804.1825681929986,,,,,,,,,,,,,,,,,,,,,,,,,,,,,,,,,,,,,,,,,,,,,,,,,,,,,47150,2022-09-20_10h22.17.720,vts_reward_expectancy_OFFLINE,2022.2.4,59.923776118264016,
,,,,,,,,,,,,,,,,,,0,0,0,0,4,0,4,0,,,,,,,,,,,,,,,,,,,,,,,,,,,,,,,,,,,,,,,,,,,,,,,,810.7397923280005,,,181,H,hexagon,0.0011815220059361309,806.6688181530044,808.1701400640013,808.1701400640013,808.1701400640013,1,0,f,1.0470614309961093,0,809.2383079479987,,,,,,,,,,,,,,,,,,,,,,,,,,,,,,,,,,,,,,,,,,,,,,,,,,,,,47150,2022-09-20_10h22.17.720,vts_reward_expectancy_OFFLINE,2022.2.4,59.923776118264016,
,,,,,,,,,,,,,,,,,,0,0,0,0,5,0,5,0,,,,,,,,,,,,,,,,,,,,,,,,,,,,,,,,,,,,,,,,,,,,,,,,815.9288219650043,,,160,S,triangle,0.0011630020017037168,811.7243216389979,813.2259621350022,813.2259621350022,813.2259621350022,1,0,f,1.1688712969989865,0,814.4272755229977,,,,,,,,,,,,,,,,,,,,,,,,,,,,,,,,,,,,,,,,,,,,,,,,,,,,,47150,2022-09-20_10h22.17.720,vts_reward_expectancy_OFFLINE,2022.2.4,59.923776118264016,
,,,,,,,,,,,,,,,,,,0,0,0,0,6,0,6,0,,,,,,,,,,,,,,,,,,,,,,,,,,,,,,,,,,,,,,,,,,,,,,,,821.5351713199998,,,139,Y,circle,0.0013264379958854988,816.9132136109984,818.4150503109995,818.4150503109995,818.4150503109995,1,0,d,1.594556594005553,0,820.0334100000036,821.5351713199998,,,,,,,,,,,,,,,,,,,,,,,,,,,,,,,,,,,,,,,,,,,,,,,,,,,,47150,2022-09-20_10h22.17.720,vts_reward_expectancy_OFFLINE,2022.2.4,59.923776118264016,
,,,,,,,,,,,,,,,,,,0,0,0,0,7,0,7,0,,,,,,,,,,,,,,,,,,,,,,,,,,,,,,,,,,,,,,,,,,,,,,,,826.3568985380043,,,146,B,star,0.0012690910007222556,822.5194179550017,824.0212006229995,824.0212006229995,824.0212006229995,1,0,d,0.8046826169957058,0,824.8552338630034,,,,,,,,,,,,,,,,,,,,,,,,,,,,,,,,,,,,,,,,,,,,,,,,,,,,,47150,2022-09-20_10h22.17.720,vts_reward_expectancy_OFFLINE,2022.2.4,59.923776118264016,
,,,,,,,,,,,,,,,,,,0,0,0,0,8,0,8,0,,,,,,,,,,,,,,,,,,,,,,,,,,,,,,,,,,,,,,,,,,,,,,,,831.0954390179977,,,167,D,circle,0.0014781540012336336,827.3414108430006,828.8431384610012,828.8431384610012,828.8431384610012,1,0,f,0.7264848160048132,0,829.5938993029995,,,,,,,,,,,,,,,,,,,,,,,,,,,,,,,,,,,,,,,,,,,,,,,,,,,,,47150,2022-09-20_10h22.17.720,vts_reward_expectancy_OFFLINE,2022.2.4,59.923776118264016,
,,,,,,,,,,,,,,,,,,0,0,0,0,9,0,9,0,,,,,,,,,,,,,,,,,,,,,,,,,,,,,,,,,,,,,,,,,,,,,,,,835.6005652390013,,,132,U,star,0.0012842770011047833,832.0799982930039,833.5814876279983,833.5814876279983,833.5814876279983,1,0,d,0.49275024000235135,0,834.0988069240047,,,,,,,,,,,,,,,,,,,,,,,,,,,,,,,,,,,,,,,,,,,,,,,,,,,,,47150,2022-09-20_10h22.17.720,vts_reward_expectancy_OFFLINE,2022.2.4,59.923776118264016,
,,,,,,,,,,,,,,,,,,,,,,,,,,0,0,0,0,0,0,0,0,,,,,,,,,,,,,,,,,,,,,,,,,,,,,,,,,,,,,,,,896.8848884940016,,,160,Y,triangle,0.002057448000414297,,,,,1,0,,,1,895.3832610450045,896.8848884940016,891.962915832999,893.4643299579984,893.4643299579984,893.4643299579984,k,1.8972269279984175,,,,,,,,,,,,,,,,,,,,,,,,,,,,,,,,,,,,,,,,,,,,,,47150,2022-09-20_10h22.17.720,vts_reward_expectancy_OFFLINE,2022.2.4,59.923776118264016,
,,,,,,,,,,,,,,,,,,,,,,,,,,0,0,0,0,1,0,1,0,,,,,,,,,,,,,,,,,,,,,,,,,,,,,,,,,,,,,,,,903.2083184400035,,,167,S,circle,0.0010821719988598488,,,,,0,0,,,1,901.7068829710042,,897.8690675489997,899.3708938700001,899.3708938700001,899.3708938700001,j,2.3035918539972045,,,,,,,,,,,,,,,,,,,,,,,,,,,,,,,,,,,,,,,,,,,,,,47150,2022-09-20_10h22.17.720,vts_reward_expectancy_OFFLINE,2022.2.4,59.923776118264016,
,,,,,,,,,,,,,,,,,,,,,,,,,,0,0,0,0,2,0,2,0,,,,,,,,,,,,,,,,,,,,,,,,,,,,,,,,,,,,,,,,908.5978009450046,,,174,H,star,0.001471051000407897,,,,,1,1,,,1,907.0960756959976,,904.1928765600023,905.6945101750025,905.6945101750025,905.6945101750025,j,1.3709644819973619,,,,,,,,,,,,,,,,,,,,,,,,,,,,,,,,,,,,,,,,,,,,,,47150,2022-09-20_10h22.17.720,vts_reward_expectancy_OFFLINE,2022.2.4,59.923776118264016,
,,,,,,,,,,,,,,,,,,,,,,,,,,0,0,0,0,3,0,3,0,,,,,,,,,,,,,,,,,,,,,,,,,,,,,,,,,,,,,,,,914.2208898160025,,,146,F,hexagon,0.0012567369994940236,,,,,1,0,,,1,912.7191246830043,,909.5821676710038,911.0839049540009,911.0839049540009,911.0839049540009,j,1.6067620769972564,,,,,,,,,,,,,,,,,,,,,,,,,,,,,,,,,,,,,,,,,,,,,,47150,2022-09-20_10h22.17.720,vts_reward_expectancy_OFFLINE,2022.2.4,59.923776118264016,
,,,,,,,,,,,,,,,,,,,,,,,,,,0,0,0,0,4,0,4,0,,,,,,,,,,,,,,,,,,,,,,,,,,,,,,,,,,,,,,,,919.0759850750037,,,125,D,circle,0.001370199999655597,,,,,1,0,,,1,917.5743890930025,,915.2050974650047,916.7068068230001,916.7068068230001,916.7068068230001,j,0.8469323350000195,,,,,,,,,,,,,,,,,,,,,,,,,,,,,,,,,,,,,,,,,,,,,,47150,2022-09-20_10h22.17.720,vts_reward_expectancy_OFFLINE,2022.2.4,59.923776118264016,
,,,,,,,,,,,,,,,,,,,,,,,,,,0,0,0,0,5,0,5,0,,,,,,,,,,,,,,,,,,,,,,,,,,,,,,,,,,,,,,,,924.7488764610025,,,181,U,star,0.0011759849949157797,,,,,1,0,,,1,923.2472615279985,,920.0605185649983,921.5617856700046,921.5617856700046,921.5617856700046,k,1.6632853129995055,,,,,,,,,,,,,,,,,,,,,,,,,,,,,,,,,,,,,,,,,,,,,,47150,2022-09-20_10h22.17.720,vts_reward_expectancy_OFFLINE,2022.2.4,59.923776118264016,
,,,,,,,,,,,,,,,,,,,,,,,,,,0,0,0,0,6,0,6,0,,,,,,,,,,,,,,,,,,,,,,,,,,,,,,,,,,,,,,,,929.403970389998,,,139,W,hexagon,0.0011739820038201287,,,,,1,0,,,1,927.9025349229996,,925.7335141580043,927.2351855110028,927.2351855110028,927.2351855110028,k,0.6399045860016486,,,,,,,,,,,,,,,,,,,,,,,,,,,,,,,,,,,,,,,,,,,,,,47150,2022-09-20_10h22.17.720,vts_reward_expectancy_OFFLINE,2022.2.4,59.923776118264016,
,,,,,,,,,,,,,,,,,,,,,,,,,,0,0,0,0,7,0,7,0,,,,,,,,,,,,,,,,,,,,,,,,,,,,,,,,,,,,,,,,934.0758853689986,,,132,B,triangle,0.0013351279994822107,,,,,1,0,,,1,932.5741428330002,,930.3883262680029,931.8901378779992,931.8901378779992,931.8901378779992,j,0.6566714699947624,,,,,,,,,,,,,,,,,,,,,,,,,,,,,,,,,,,,,,,,,,,,,,47150,2022-09-20_10h22.17.720,vts_reward_expectancy_OFFLINE,2022.2.4,59.923776118264016,
,,,,,,,,,,,,,,,,,,,,,,,,,,0,0,0,0,8,0,8,0,,,,,,,,,,,,,,,,,,,,,,,,,,,,,,,,,,,,,,,,938.7143151630007,,,160,Y,star,0.0013822699984302744,,,,,1,0,,,1,937.2128804630047,,935.0601527690014,936.5619497040025,936.5619497040025,936.5619497040025,k,0.6326591440010816,,,,,,,,,,,,,,,,,,,,,,,,,,,,,,,,,,,,,,,,,,,,,,47150,2022-09-20_10h22.17.720,vts_reward_expectancy_OFFLINE,2022.2.4,59.923776118264016,
,,,,,,,,,,,,,,,,,,,,,,,,,,0,0,0,0,9,0,9,0,,,,,,,,,,,,,,,,,,,,,,,,,,,,,,,,,,,,,,,,943.7366576600034,,,167,S,hexagon,0.0011216320053790696,,,,,1,0,,,1,942.234769130002,,939.6988521809981,941.2004016030041,941.2004016030041,941.2004016030041,k,1.0022215979988687,,,,,,,,,,,,,,,,,,,,,,,,,,,,,,,,,,,,,,,,,,,,,,47150,2022-09-20_10h22.17.720,vts_reward_expectancy_OFFLINE,2022.2.4,59.923776118264016,
,,,,,,,,,,,,,,,,,,,,,,,,,,,,,,,,,,0,0,0,0,0,0,0,0,,,,,,,,,,,,,,,,,,,,,,,,,,,,0,585,,,998.563546434998,,,174,Y,star,0.0018004459998337552,,,,,-1,0,,,2,,,,,,,,,992.5568667679981,992.5568667679981,992.5568667679981,992.5568667679981,994.041972922998,994.041972922998,994.041972922998,994.041972922998,994.0586729979987,994.0586729979987,994.0586729979987,994.0586729979987,997.0621245930015,997.0621245930015,997.0621245930015,997.0621245930015,-1,no_choice,NA,None,vtsPrac,997.0621245930015,,,,,,,,,,,,,,,,,,,,,,,,47150,2022-09-20_10h22.17.720,vts_reward_expectancy_OFFLINE,2022.2.4,59.923776118264016,
,,,,,,,,,,,,,,,,,,,,,,,,,,,,,,,,,,0,0,0,0,1,0,1,0,,,,,,,,,,,,,,,,,,,,,,,,,,,,0,585,,,1005.3376545909996,,,132,D,hexagon,0.00919244500255445,,,,,1,0,,,2,,,,,,,,,999.5482364700001,999.5482364700001,999.5482364700001,999.5482364700001,1001.0496778200031,1001.0496778200031,1001.0496778200031,1001.0496778200031,1001.0496778200031,1001.0496778200031,1001.0496778200031,1001.0496778200031,,,,,switch,number,numSwt,d,vtsPrac,1003.8360987289998,2.7537206440028967,,,,,,,,,,,,,,,,,,,,,,,47150,2022-09-20_10h22.17.720,vts_reward_expectancy_OFFLINE,2022.2.4,59.923776118264016,
,,,,,,,,,,,,,,,,,,,,,,,,,,,,,,,,,,0,0,0,0,2,0,2,0,,,,,,,,,,,,,,,,,,,,,,,,,,,,0,585,,,1011.5113125749995,,,125,W,triangle,0.0011499850006657653,,,,,1,0,,,2,,,,,,,,,1006.3222094390003,1006.3222094390003,1006.3222094390003,1006.3222094390003,1007.8237961979976,1007.8237961979976,1007.8237961979976,1007.8237961979976,1007.8237961979976,1007.8237961979976,1007.8237961979976,1007.8237961979976,,,,,repeat,number,numRpt,d,vtsPrac,1010.009530880001,2.1534534620004706,,,,,,,,,,,,,,,,,,,,,,,47150,2022-09-20_10h22.17.720,vts_reward_expectancy_OFFLINE,2022.2.4,59.923776118264016,
,,,,,,,,,,,,,,,,,,,,,,,,,,,,,,,,,,0,0,0,0,3,0,3,0,,,,,,,,,,,,,,,,,,,,,,,,,,,,0,585,,,1016.366663245004,,,139,S,hexagon,0.0012655739992624149,,,,,1,0,,,2,,,,,,,,,1012.4956270879993,1012.4956270879993,1012.4956270879993,1012.4956270879993,1013.9972838340036,1013.9972838340036,1013.9972838340036,1013.9972838340036,1013.9972838340036,1013.9972838340036,1013.9972838340036,1013.9972838340036,,,,,repeat,number,numRpt,d,vtsPrac,1014.8649042180041,0.8366895490034949,,,,,,,,,,,,,,,,,,,,,,,47150,2022-09-20_10h22.17.720,vts_reward_expectancy_OFFLINE,2022.2.4,59.923776118264016,
,,,,,,,,,,,,,,,,,,,,,,,,,,,,,,,,,,0,0,0,0,4,0,4,0,,,,,,,,,,,,,,,,,,,,,,,,,,,,0,585,,,1022.2065383259978,,,174,Y,circle,0.0012408340044203214,,,,,0,0,,,2,,,,,,,,,1017.3510660410029,1017.3510660410029,1017.3510660410029,1017.3510660410029,1018.852574575998,1018.852574575998,1018.852574575998,1018.852574575998,1018.852574575998,1018.852574575998,1018.852574575998,1018.852574575998,,,,,repeat,number,NA,d,vtsPrac,1020.7054885629987,1.8286289640018367,,,,,,,,,,,,,,,,,,,,,,,47150,2022-09-20_10h22.17.720,vts_reward_expectancy_OFFLINE,2022.2.4,59.923776118264016,
,,,,,,,,,,,,,,,,,,,,,,,,,,,,,,,,,,0,0,0,0,5,0,5,0,,,,,,,,,,,,,,,,,,,,,,,,,,,,0,585,,,1027.445596853002,,,132,D,triangle,0.0012152319977758452,,,,,0,1,,,2,,,,,,,,,1023.1907924650004,1023.1907924650004,1023.1907924650004,1023.1907924650004,1024.6925404010035,1024.6925404010035,1024.6925404010035,1024.6925404010035,1024.6925404010035,1024.6925404010035,1024.6925404010035,1024.6925404010035,,,,,repeat,number,NA,f,vtsPrac,1025.9439103350014,1.2208741290014586,,,,,,,,,,,,,,,,,,,,,,,47150,2022-09-20_10h22.17.720,vts_reward_expectancy_OFFLINE,2022.2.4,59.923776118264016,
,,,,,,,,,,,,,,,,,,,,,,,,,,,,,,,,,,0,0,0,0,6,0,6,0,,,,,,,,,,,,,,,,,,,,,,,,,,,,0,585,,,1033.6523514639994,,,125,W,triangle,0.0010949529969366267,,,,,1,1,,,2,,,,,,,,,1028.4299371160014,1028.4299371160014,1028.4299371160014,1028.4299371160014,1029.9316772489983,1029.9316772489983,1029.9316772489983,1029.9316772489983,1029.9316772489983,1029.9316772489983,1029.9316772489983,1029.9316772489983,,,,,switch,letter,lettSwt,k,vtsPrac,1032.1509097860035,2.1974295520049054,,,,,,,,,,,,,,,,,,,,,,,47150,2022-09-20_10h22.17.720,vts_reward_expectancy_OFFLINE,2022.2.4,59.923776118264016,
,,,,,,,,,,,,,,,,,,,,,,,,,,,,,,,,,,0,0,0,0,7,0,7,0,,,,,,,,,,,,,,,,,,,,,,,,,,,,0,585,,,1038.157469343998,,,139,S,star,0.0011788040064857341,,,,,1,0,,,2,,,,,,,,,1034.636674733003,1034.636674733003,1034.636674733003,1034.636674733003,1036.1384638910022,1036.1384638910022,1036.1384638910022,1036.1384638910022,1036.1384638910022,1036.1384638910022,1036.1384638910022,1036.1384638910022,,,,,repeat,letter,lettRpt,k,vtsPrac,1036.655588540998,0.4868032569938805,,,,,,,,,,,,,,,,,,,,,,,47150,2022-09-20_10h22.17.720,vts_reward_expectancy_OFFLINE,2022.2.4,59.923776118264016,
,,,,,,,,,,,,,,,,,,,,,,,,,,,,,,,,,,0,0,0,0,8,0,8,0,,,,,,,,,,,,,,,,,,,,,,,,,,,,0,585,,,1042.829251424002,,,167,U,star,0.0013938159972894937,,,,,1,0,,,2,,,,,,,,,1039.1417028529977,1039.1417028529977,1039.1417028529977,1039.1417028529977,1040.6434182459998,1040.6434182459998,1040.6434182459998,1040.6434182459998,1040.6434182459998,1040.6434182459998,1040.6434182459998,1040.6434182459998,,,,,repeat,letter,lettRpt,k,vtsPrac,1041.3274897680021,0.6535366539974348,1042.829251424002,,,,,,,,,,,,,,,,,,,,,,47150,2022-09-20_10h22.17.720,vts_reward_expectancy_OFFLINE,2022.2.4,59.923776118264016,
,,,,,,,,,,,,,,,,,,,,,,,,,,,,,,,,,,0,0,0,0,9,0,9,0,,,,,,,,,,,,,,,,,,,,,,,,,,,,0,585,,,1047.734520625003,,,181,Y,triangle,0.0008929860050557181,,,,,1,0,,,2,,,,,,,,,1043.8135434159994,1043.8135434159994,1043.8135434159994,1043.8135434159994,1045.3154183529987,1045.3154183529987,1045.3154183529987,1045.3154183529987,1045.3154183529987,1045.3154183529987,1045.3154183529987,1045.3154183529987,,,,,repeat,letter,lettRpt,k,vtsPrac,1046.2330387379989,0.8863420220004627,,,,,,,,,,,,,,,,,,,,,,,47150,2022-09-20_10h22.17.720,vts_reward_expectancy_OFFLINE,2022.2.4,59.923776118264016,
,,,,,,,,,,,,,,,,,,,,,,,,,,,,,,,,,,0,0,0,0,10,0,10,0,,,,,,,,,,,,,,,,,,,,,,,,,,,,0,585,,,1053.8913615380006,,,160,D,triangle,0.0011790740027208813,,,,,0,0,,,2,,,,,,,,,1048.7189339660035,1048.7189339660035,1048.7189339660035,1048.7189339660035,1050.2205193160044,1050.2205193160044,1050.2205193160044,1050.2205193160044,1050.2205193160044,1050.2205193160044,1050.2205193160044,1050.2205193160044,,,,,switch,number,NA,d,vtsPrac,1052.3904415700017,2.1486888419967727,,,,,,,,,,,,,,,,,,,,,,,47150,2022-09-20_10h22.17.720,vts_reward_expectancy_OFFLINE,2022.2.4,59.923776118264016,
,,,,,,,,,,,,,,,,,,,,,,,,,,,,,,,,,,0,0,0,0,11,0,11,0,,,,,,,,,,,,,,,,,,,,,,,,,,,,0,585,,,1058.7467542680024,,,132,B,circle,0.0012048669959767722,,,,,0,1,,,2,,,,,,,,,1054.8756910529992,1054.8756910529992,1054.8756910529992,1054.8756910529992,1056.3772894139984,1056.3772894139984,1056.3772894139984,1056.3772894139984,1056.3772894139984,1056.3772894139984,1056.3772894139984,1056.3772894139984,,,,,switch,letter,NA,k,vtsPrac,1057.2449778689988,0.8500305380002828,,,,,,,,,,,,,,,,,,,,,,,47150,2022-09-20_10h22.17.720,vts_reward_expectancy_OFFLINE,2022.2.4,59.923776118264016,
,,,,,,,,,,,,,,,,,,,,,,,,,,,,,,,,,,0,0,0,0,12,0,12,0,,,,,,,,,,,,,,,,,,,,,,,,,,,,0,585,,,1063.6019656749995,,,174,B,hexagon,0.001195445998746436,,,,,0,1,,,2,,,,,,,,,1059.7310244690016,1059.7310244690016,1059.7310244690016,1059.7310244690016,1061.2327609109998,1061.2327609109998,1061.2327609109998,1061.2327609109998,1061.2327609109998,1061.2327609109998,1061.2327609109998,1061.2327609109998,,,,,switch,number,NA,d,vtsPrac,1062.1004759740026,0.8412374639956397,,,,,,,,,,,,,,,,,,,,,,,47150,2022-09-20_10h22.17.720,vts_reward_expectancy_OFFLINE,2022.2.4,59.923776118264016,
,,,,,,,,,,,,,,,,,,,,,,,,,,,,,,,,,,0,0,0,0,13,0,13,0,,,,,,,,,,,,,,,,,,,,,,,,,,,,0,585,,,1067.9069633580002,,,160,U,star,0.001302589000260923,,,,,1,1,,,2,,,,,,,,,1064.5866798409988,1064.5866798409988,1064.5866798409988,1064.5866798409988,1066.0880842890037,1066.0880842890037,1066.0880842890037,1066.0880842890037,1066.0880842890037,1066.0880842890037,1066.0880842890037,1066.0880842890037,,,,,repeat,number,numRpt,f,vtsPrac,1066.4055228150028,0.29841888699593255,,,,,,,,,,,,,,,,,,,,,,,47150,2022-09-20_10h22.17.720,vts_reward_expectancy_OFFLINE,2022.2.4,59.923776118264016,
,,,,,,,,,,,,,,,,,,,,,,,,,,,,,,,,,,0,0,0,0,14,0,14,0,,,,,,,,,,,,,,,,,,,,,,,,,,,,0,585,,,1072.2283622629984,,,146,F,hexagon,0.0012770370012731291,,,,,1,0,,,2,,,,,,,,,1068.8911652899988,1068.8911652899988,1068.8911652899988,1068.8911652899988,1070.3930082900042,1070.3930082900042,1070.3930082900042,1070.3930082900042,1070.3930082900042,1070.3930082900042,1070.3930082900042,1070.3930082900042,,,,,switch,letter,lettSwt,j,vtsPrac,1070.7267143999998,0.3060020739940228,,,,,,,,,,,,,,,,,,,,,,,47150,2022-09-20_10h22.17.720,vts_reward_expectancy_OFFLINE,2022.2.4,59.923776118264016,
,,,,,,,,,,,,,,,,,,,,,,,,,,,,,,,,,,0,0,0,0,15,0,15,0,,,,,,,,,,,,,,,,,,,,,,,,,,,,0,585,,,1076.3829897329997,,,167,W,triangle,0.0014104809961281717,,,,,0,0,,,2,,,,,,,,,1073.212770060003,1073.212770060003,1073.212770060003,1073.212770060003,1074.7141787590008,1074.7141787590008,1074.7141787590008,1074.7141787590008,1074.7141787590008,1074.7141787590008,1074.7141787590008,1074.7141787590008,,,,,repeat,letter,NA,j,vtsPrac,1074.881542068004,0.14294072199845687,,,,,,,,,,,,,,,,,,,,,,,47150,2022-09-20_10h22.17.720,vts_reward_expectancy_OFFLINE,2022.2.4,59.923776118264016,
,,,,,,,,,,,,,,,,,,,,,,,,,,,,,,,,,,1,0,1,0,0,0,0,0,,,,,,,,,,,,,,,,,,,,,,,,,,,,0,585,,,1091.8832969060022,,,167,U,star,0.001855120004620403,,,,,1,1,,,3,,,,,,,,,1088.4962520629997,1088.4962520629997,1088.4962520629997,1088.4962520629997,1089.9976673909987,1089.9976673909987,1089.9976673909987,1089.9976673909987,1089.9976673909987,1089.9976673909987,1089.9976673909987,1089.9976673909987,,,,,switch,number,numSwt,f,vtsPrac,1090.3825923210024,0.3636332210007822,,,,,,,,,,,,,,,,,,,,,,,47150,2022-09-20_10h22.17.720,vts_reward_expectancy_OFFLINE,2022.2.4,59.923776118264016,
,,,,,,,,,,,,,,,,,,,,,,,,,,,,,,,,,,1,0,1,0,1,0,1,0,,,,,,,,,,,,,,,,,,,,,,,,,,,,0,585,,,1096.2379935179997,,,174,B,hexagon,0.0010406340006738901,,,,,1,0,,,3,,,,,,,,,1092.8678926209977,1092.8678926209977,1092.8678926209977,1092.8678926209977,1094.369465859003,1094.369465859003,1094.369465859003,1094.369465859003,1094.369465859003,1094.369465859003,1094.369465859003,1094.369465859003,,,,,repeat,number,numRpt,f,vtsPrac,1094.736519060003,0.33587626500229817,1096.2379935179997,,,,,,,,,,,,,,,,,,,,,,47150,2022-09-20_10h22.17.720,vts_reward_expectancy_OFFLINE,2022.2.4,59.923776118264016,
,,,,,,,,,,,,,,,,,,,,,,,,,,,,,,,,,,1,0,1,0,2,0,2,0,,,,,,,,,,,,,,,,,,,,,,,,,,,,0,585,,,1100.275987728004,,,146,H,star,0.0010891650017583743,,,,,0,0,,,3,,,,,,,,,1097.2225585880005,1097.2225585880005,1097.2225585880005,1097.2225585880005,1098.7240744490045,1098.7240744490045,1098.7240744490045,1098.7240744490045,1098.7240744490045,1098.7240744490045,1098.7240744490045,1098.7240744490045,,,,,repeat,number,NA,f,vtsPrac,1098.7742677589995,0.02901951399690006,,,,,,,,,,,,,,,,,,,,,,,47150,2022-09-20_10h22.17.720,vts_reward_expectancy_OFFLINE,2022.2.4,59.923776118264016,
,,,,,,,,,,,,,,,,,,,,,,,,,,,,,,,,,,1,0,1,0,3,0,3,0,,,,,,,,,,,,,,,,,,,,,,,,,,,,0,585,,,1104.6972889280005,,,181,S,triangle,0.0014537130045937374,,,,,1,1,,,3,,,,,,,,,1101.260247858001,1101.260247858001,1101.260247858001,1101.260247858001,1102.7619109130028,1102.7619109130028,1102.7619109130028,1102.7619109130028,1102.7619109130028,1102.7619109130028,1102.7619109130028,1102.7619109130028,,,,,switch,letter,lettSwt,k,vtsPrac,1103.1968702079976,0.4171221809956478,1104.6972889280005,,,,,,,,,,,,,,,,,,,,,,47150,2022-09-20_10h22.17.720,vts_reward_expectancy_OFFLINE,2022.2.4,59.923776118264016,
,,,,,,,,,,,,,,,,,,,,,,,,,,,,,,,,,,1,0,1,0,4,0,4,0,,,,,,,,,,,,,,,,,,,,,,,,,,,,0,585,,,1108.802090723002,,,167,U,triangle,0.0008252609986811876,,,,,0,0,,,3,,,,,,,,,1105.6818338390003,1105.6818338390003,1105.6818338390003,1105.6818338390003,1107.1835666740008,1107.1835666740008,1107.1835666740008,1107.1835666740008,1107.1835666740008,1107.1835666740008,1107.1835666740008,1107.1835666740008,,,,,switch,number,NA,d,vtsPrac,1107.3003493750002,0.08397812600014731,,,,,,,,,,,,,,,,,,,,,,,47150,2022-09-20_10h22.17.720,vts_reward_expectancy_OFFLINE,2022.2.4,59.923776118264016,
,,,,,,,,,,,,,,,,,,,,,,,,,,,,,,,,,,1,0,1,0,5,0,5,0,,,,,,,,,,,,,,,,,,,,,,,,,,,,0,585,,,1113.3736940140006,,,174,B,star,0.01800518399977591,,,,,0,1,,,3,,,,,,,,,1109.8030897940043,1109.8030897940043,1109.8030897940043,1109.8030897940043,1111.2882042700003,1111.2882042700003,1111.2882042700003,1111.2882042700003,1111.304559698001,1111.304559698001,1111.304559698001,1111.304559698001,,,,,repeat,number,NA,d,vtsPrac,1111.8720948900009,0.5609555330011062,1113.3736940140006,,,,,,,,,,,,,,,,,,,,,,47150,2022-09-20_10h22.17.720,vts_reward_expectancy_OFFLINE,2022.2.4,59.923776118264016,
,,,,,,,,,,,,,,,,,,,,,,,,,,,,,,,,,,1,0,1,0,6,0,6,0,,,,,,,,,,,,,,,,,,,,,,,,,,,,0,585,,,1117.711779475998,,,146,H,hexagon,0.001193577998492401,,,,,0,1,,,3,,,,,,,,,1114.3582039360044,1114.3582039360044,1114.3582039360044,1114.3582039360044,1115.8596691159983,1115.8596691159983,1115.8596691159983,1115.8596691159983,1115.8596691159983,1115.8596691159983,1115.8596691159983,1115.8596691159983,,,,,repeat,number,NA,f,vtsPrac,1116.2100018380006,0.31816330199944787,,,,,,,,,,,,,,,,,,,,,,,47150,2022-09-20_10h22.17.720,vts_reward_expectancy_OFFLINE,2022.2.4,59.923776118264016,
,,,,,,,,,,,,,,,,,,,,,,,,,,,,,,,,,,1,0,1,0,7,0,7,0,,,,,,,,,,,,,,,,,,,,,,,,,,,,0,585,,,1122.2501768810034,,,181,S,circle,0.001302792996284552,,,,,1,1,,,3,,,,,,,,,1118.6961670960009,1118.6961670960009,1118.6961670960009,1118.6961670960009,1120.1980397459993,1120.1980397459993,1120.1980397459993,1120.1980397459993,1120.1980397459993,1120.1980397459993,1120.1980397459993,1120.1980397459993,,,,,switch,letter,lettSwt,k,vtsPrac,1120.7652090890042,0.5235519720008597,,,,,,,,,,,,,,,,,,,,,,,47150,2022-09-20_10h22.17.720,vts_reward_expectancy_OFFLINE,2022.2.4,59.923776118264016,
,,,,,,,,,,,,,,,,,,,,,,,,,,,,,,,,,,1,0,1,0,8,0,8,0,,,,,,,,,,,,,,,,,,,,,,,,,,,,0,585,,,1128.440320448004,,,146,F,triangle,0.001273696994758211,,,,,0,0,,,3,,,,,,,,,1123.2347701850013,1123.2347701850013,1123.2347701850013,1123.2347701850013,1124.7363016430027,1124.7363016430027,1124.7363016430027,1124.7363016430027,1124.7363016430027,1124.7363016430027,1124.7363016430027,1124.7363016430027,,,,,repeat,letter,NA,k,vtsPrac,1126.9552476250028,2.1768170529976487,,,,,,,,,,,,,,,,,,,,,,,47150,2022-09-20_10h22.17.720,vts_reward_expectancy_OFFLINE,2022.2.4,59.923776118264016,
,,,,,,,,,,,,,,,,,,,,,,,,,,,,,,,,,,1,0,1,0,9,0,9,0,,,,,,,,,,,,,,,,,,,,,,,,,,,,0,585,,,1132.995266101003,,,181,S,star,0.001180844999908004,,,,,0,1,,,3,,,,,,,,,1129.4247651929982,1129.4247651929982,1129.4247651929982,1129.4247651929982,1130.9263889540016,1130.9263889540016,1130.9263889540016,1130.9263889540016,1130.9263889540016,1130.9263889540016,1130.9263889540016,1130.9263889540016,,,,,switch,number,NA,d,vtsPrac,1131.4937093850021,0.5398786969963112,,,,,,,,,,,,,,,,,,,,,,,47150,2022-09-20_10h22.17.720,vts_reward_expectancy_OFFLINE,2022.2.4,59.923776118264016,
,,,,,,,,,,,,,,,,,,,,,,,,,,,,,,,,,,1,0,1,0,10,0,10,0,,,,,,,,,,,,,,,,,,,,,,,,,,,,0,585,,,1137.0165009030025,,,174,D,circle,0.0013304429958225228,,,,,1,1,,,3,,,,,,,,,1133.97972055,1133.97972055,1133.97972055,1133.97972055,1135.4814489830023,1135.4814489830023,1135.4814489830023,1135.4814489830023,1135.4814489830023,1135.4814489830023,1135.4814489830023,1135.4814489830023,,,,,switch,letter,lettSwt,j,vtsPrac,1135.5315800040044,0.007535674994869623,,,,,,,,,,,,,,,,,,,,,,,47150,2022-09-20_10h22.17.720,vts_reward_expectancy_OFFLINE,2022.2.4,59.923776118264016,
,,,,,,,,,,,,,,,,,,,,,,,,,,,,,,,,,,1,0,1,0,11,0,11,0,,,,,,,,,,,,,,,,,,,,,,,,,,,,0,585,,,1144.0073323550023,,1144.507915758004,160,B,star,0.0013414500062935986,,,,,-1,0,,,3,,,,,,,,,1138.0008352310033,1138.0008352310033,1138.0008352310033,1138.0008352310033,1139.5026427730045,1139.5026427730045,1139.5026427730045,1139.5026427730045,1139.5026427730045,1139.5026427730045,1139.5026427730045,1139.5026427730045,1142.5059431030022,1142.5059431030022,1142.5059431030022,1142.5059431030022,switch,no_choice,NA,None,vtsPrac,1142.5059431030022,,1144.0073323550023,,,,,,,,,,,,,,,,,,,,,,47150,2022-09-20_10h22.17.720,vts_reward_expectancy_OFFLINE,2022.2.4,59.923776118264016,
,,,,,,,,,,,,,,,,,,,,,,,,,,,,,,,,,,1,0,1,0,12,0,12,0,,,,,,,,,,,,,,,,,,,,,,,,,,,,0,585,,,1148.9295559860038,,,181,S,hexagon,0.008389624999836087,,,,,1,0,,,3,,,,,,,,,1145.0085707510007,1145.0085707510007,1145.0085707510007,1145.0085707510007,1146.5102478940025,1146.5102478940025,1146.5102478940025,1146.5102478940025,1146.5102478940025,1146.5102478940025,1146.5102478940025,1146.5102478940025,,,,,switch,number,numSwt,f,vtsPrac,1147.4277904300034,0.8749819610020495,,,,,,,,,,,,,,,,,,,,,,,47150,2022-09-20_10h22.17.720,vts_reward_expectancy_OFFLINE,2022.2.4,59.923776118264016,
,,,,,,,,,,,,,,,,,,,,,,,,,,,,,,,,,,1,0,1,0,13,0,13,0,,,,,,,,,,,,,,,,,,,,,,,,,,,,0,585,,,1152.9841218479996,,,146,F,star,0.00104383600410074,,,,,1,0,,,3,,,,,,,,,1149.897245289998,1149.897245289998,1149.897245289998,1149.897245289998,1151.398984985004,1151.398984985004,1151.398984985004,1151.398984985004,1151.398984985004,1151.398984985004,1151.398984985004,1151.398984985004,,,,,switch,letter,lettSwt,j,vtsPrac,1151.4824163840021,0.05117381399759324,,,,,,,,,,,,,,,,,,,,,,,47150,2022-09-20_10h22.17.720,vts_reward_expectancy_OFFLINE,2022.2.4,59.923776118264016,
,,,,,,,,,,,,,,,,,,,,,,,,,,,,,,,,,,1,0,1,0,14,0,14,0,,,,,,,,,,,,,,,,,,,,,,,,,,,,0,585,,,1159.9752607379996,,1160.4755656589987,174,H,hexagon,0.0012133409982197918,,,,,-1,0,,,3,,,,,,,,,1153.9684238289992,1153.9684238289992,1153.9684238289992,1153.9684238289992,1155.4700945500008,1155.4700945500008,1155.4700945500008,1155.4700945500008,1155.4700945500008,1155.4700945500008,1155.4700945500008,1155.4700945500008,1158.4735091460025,1158.4735091460025,1158.4735091460025,1158.4735091460025,switch,no_choice,NA,None,vtsPrac,1158.4735091460025,,1159.9752607379996,,,,,,,,,,,,,,,,,,,,,,47150,2022-09-20_10h22.17.720,vts_reward_expectancy_OFFLINE,2022.2.4,59.923776118264016,
,,,,,,,,,,,,,,,,,,,,,,,,,,,,,,,,,,1,0,1,0,15,0,15,0,,,,,,,,,,,,,,,,,,,,,,,,,,,,0,585,,,1165.3310715780026,,,160,U,circle,0.008403668995015323,,,,,1,0,,,3,,,,,,,,,1160.9761238650026,1160.9761238650026,1160.9761238650026,1160.9761238650026,1162.4779853930013,1162.4779853930013,1162.4779853930013,1162.4779853930013,1162.4779853930013,1162.4779853930013,1162.4779853930013,1162.4779853930013,,,,,switch,number,numSwt,f,vtsPrac,1163.8463497480043,1.324239302004571,,,,,,,,,,,,,,,,,,,,,,,47150,2022-09-20_10h22.17.720,vts_reward_expectancy_OFFLINE,2022.2.4,59.923776118264016,
,,,,,,,,,,,,,,,,,,,,,,,,,,,,,,,,,,2,0,2,0,0,0,0,0,,,,,,,,,,,,,,,,,,,,,,,,,,,,0,585,,,1194.229398153002,,,132,S,circle,0.0018299849980394356,,,,,0,0,,,4,,,,,,,,,1190.0748688099993,1190.0748688099993,1190.0748688099993,1190.0748688099993,1191.5767080330043,1191.5767080330043,1191.5767080330043,1191.5767080330043,1191.5767080330043,1191.5767080330043,1191.5767080330043,1191.5767080330043,,,,,repeat,number,NA,f,vtsPrac,1192.7446155430007,1.129319977000705,,,,,,,,,,,,,,,,,,,,,,,47150,2022-09-20_10h22.17.720,vts_reward_expectancy_OFFLINE,2022.2.4,59.923776118264016,
,,,,,,,,,,,,,,,,,,,,,,,,,,,,,,,,,,2,0,2,0,1,0,1,0,,,,,,,,,,,,,,,,,,,,,,,,,,,,0,585,,,1200.1694300599993,,,139,U,star,0.001162079999630805,,,,,0,1,,,4,,,,,,,,,1195.214088284003,1195.214088284003,1195.214088284003,1195.214088284003,1196.7154701730033,1196.7154701730033,1196.7154701730033,1196.7154701730033,1196.7154701730033,1196.7154701730033,1196.7154701730033,1196.7154701730033,,,,,repeat,number,NA,f,vtsPrac,1198.6676096230003,1.926154526998289,,,,,,,,,,,,,,,,,,,,,,,47150,2022-09-20_10h22.17.720,vts_reward_expectancy_OFFLINE,2022.2.4,59.923776118264016,
,,,,,,,,,,,,,,,,,,,,,,,,,,,,,,,,,,2,0,2,0,2,0,2,0,,,,,,,,,,,,,,,,,,,,,,,,,,,,0,585,,,1205.2749610129977,,,146,W,triangle,0.0016035280059440993,,,,,0,1,,,4,,,,,,,,,1201.1541135279986,1201.1541135279986,1201.1541135279986,1201.1541135279986,1202.655422294003,1202.655422294003,1202.655422294003,1202.655422294003,1202.655422294003,1202.655422294003,1202.655422294003,1202.655422294003,,,,,repeat,number,NA,f,vtsPrac,1203.773472298999,1.0908730320006725,,,,,,,,,,,,,,,,,,,,,,,47150,2022-09-20_10h22.17.720,vts_reward_expectancy_OFFLINE,2022.2.4,59.923776118264016,
,,,,,,,,,,,,,,,,,,,,,,,,,,,,,,,,,,2,0,2,0,3,0,3,0,,,,,,,,,,,,,,,,,,,,,,,,,,,,0,585,,,1210.997977662999,,,167,B,hexagon,0.00138495000283001,,,,,1,1,,,4,,,,,,,,,1206.2595166840038,1206.2595166840038,1206.2595166840038,1206.2595166840038,1207.7613184880029,1207.7613184880029,1207.7613184880029,1207.7613184880029,1207.7613184880029,1207.7613184880029,1207.7613184880029,1207.7613184880029,,,,,switch,letter,lettSwt,j,vtsPrac,1209.5129844480034,1.7122321580027346,,,,,,,,,,,,,,,,,,,,,,,47150,2022-09-20_10h22.17.720,vts_reward_expectancy_OFFLINE,2022.2.4,59.923776118264016,
,,,,,,,,,,,,,,,,,,,,,,,,,,,,,,,,,,2,0,2,0,4,0,4,0,,,,,,,,,,,,,,,,,,,,,,,,,,,,0,585,,,1215.686627273004,,,132,S,triangle,0.0013637250012834556,,,,,1,0,,,4,,,,,,,,,1211.9824626359987,1211.9824626359987,1211.9824626359987,1211.9824626359987,1213.4841788980048,1213.4841788980048,1213.4841788980048,1213.4841788980048,1213.4841788980048,1213.4841788980048,1213.4841788980048,1213.4841788980048,,,,,repeat,letter,lettRpt,k,vtsPrac,1214.184868065,0.6688763049969566,,,,,,,,,,,,,,,,,,,,,,,47150,2022-09-20_10h22.17.720,vts_reward_expectancy_OFFLINE,2022.2.4,59.923776118264016,
,,,,,,,,,,,,,,,,,,,,,,,,,,,,,,,,,,2,0,2,0,5,0,5,0,,,,,,,,,,,,,,,,,,,,,,,,,,,,0,585,,,1222.477498993001,,,139,U,hexagon,0.0011907820007763803,,,,,1,0,,,4,,,,,,,,,1216.6710066689993,1216.6710066689993,1216.6710066689993,1216.6710066689993,1218.172639880002,1218.172639880002,1218.172639880002,1218.172639880002,1218.172639880002,1218.172639880002,1218.172639880002,1218.172639880002,,,,,repeat,letter,lettRpt,k,vtsPrac,1220.9761107000013,2.781725626999105,,,,,,,,,,,,,,,,,,,,,,,47150,2022-09-20_10h22.17.720,vts_reward_expectancy_OFFLINE,2022.2.4,59.923776118264016,
,,,,,,,,,,,,,,,,,,,,,,,,,,,,,,,,,,2,0,2,0,6,0,6,0,,,,,,,,,,,,,,,,,,,,,,,,,,,,0,585,,,1227.3158641100017,,,146,W,star,0.0009852139992290176,,,,,1,0,,,4,,,,,,,,,1223.461817483003,1223.461817483003,1223.461817483003,1223.461817483003,1224.9632747200012,1224.9632747200012,1224.9632747200012,1224.9632747200012,1224.9632747200012,1224.9632747200012,1224.9632747200012,1224.9632747200012,,,,,repeat,letter,lettRpt,k,vtsPrac,1225.8144919230035,0.8233498050030903,,,,,,,,,,,,,,,,,,,,,,,47150,2022-09-20_10h22.17.720,vts_reward_expectancy_OFFLINE,2022.2.4,59.923776118264016,
,,,,,,,,,,,,,,,,,,,,,,,,,,,,,,,,,,2,0,2,0,7,0,7,0,,,,,,,,,,,,,,,,,,,,,,,,,,,,0,585,,,1232.4048708990013,,,167,B,triangle,0.0009582570055499673,,,,,1,0,,,4,,,,,,,,,1228.3005147110016,1228.3005147110016,1228.3005147110016,1228.3005147110016,1229.8020556499978,1229.8020556499978,1229.8020556499978,1229.8020556499978,1229.8020556499978,1229.8020556499978,1229.8020556499978,1229.8020556499978,,,,,repeat,letter,lettRpt,j,vtsPrac,1230.9032494580024,1.070947118998447,1232.4048708990013,,,,,,,,,,,,,,,,,,,,,,47150,2022-09-20_10h22.17.720,vts_reward_expectancy_OFFLINE,2022.2.4,59.923776118264016,
,,,,,,,,,,,,,,,,,,,,,,,,,,,,,,,,,,2,0,2,0,8,0,8,0,,,,,,,,,,,,,,,,,,,,,,,,,,,,0,585,,,1237.4937401580028,,,146,S,triangle,0.0008198889991035685,,,,,1,0,,,4,,,,,,,,,1233.3893599209987,1233.3893599209987,1233.3893599209987,1233.3893599209987,1234.8910544329992,1234.8910544329992,1234.8910544329992,1234.8910544329992,1234.8910544329992,1234.8910544329992,1234.8910544329992,1234.8910544329992,,,,,repeat,letter,lettRpt,k,vtsPrac,1235.992410453,1.0786914300042554,,,,,,,,,,,,,,,,,,,,,,,47150,2022-09-20_10h22.17.720,vts_reward_expectancy_OFFLINE,2022.2.4,59.923776118264016,
,,,,,,,,,,,,,,,,,,,,,,,,,,,,,,,,,,2,0,2,0,9,0,9,0,,,,,,,,,,,,,,,,,,,,,,,,,,,,0,585,,,1242.4995811289991,,,125,F,circle,0.0012382540007820353,,,,,1,0,,,4,,,,,,,,,1238.4783736710015,1238.4783736710015,1238.4783736710015,1238.4783736710015,1239.9800102029985,1239.9800102029985,1239.9800102029985,1239.9800102029985,1239.9800102029985,1239.9800102029985,1239.9800102029985,1239.9800102029985,,,,,repeat,letter,lettRpt,j,vtsPrac,1240.9980307610022,0.9902820739953313,,,,,,,,,,,,,,,,,,,,,,,47150,2022-09-20_10h22.17.720,vts_reward_expectancy_OFFLINE,2022.2.4,59.923776118264016,
,,,,,,,,,,,,,,,,,,,,,,,,,,,,,,,,,,2,0,2,0,10,0,10,0,,,,,,,,,,,,,,,,,,,,,,,,,,,,0,585,,,1247.1379000540037,,,132,B,circle,0.0012334339990047738,,,,,1,0,,,4,,,,,,,,,1243.4840306580008,1243.4840306580008,1243.4840306580008,1243.4840306580008,1244.9853970359982,1244.9853970359982,1244.9853970359982,1244.9853970359982,1244.9853970359982,1244.9853970359982,1244.9853970359982,1244.9853970359982,,,,,repeat,letter,lettRpt,j,vtsPrac,1245.636118909999,0.6242942959943321,,,,,,,,,,,,,,,,,,,,,,,47150,2022-09-20_10h22.17.720,vts_reward_expectancy_OFFLINE,2022.2.4,59.923776118264016,
,,,,,,,,,,,,,,,,,,,,,,,,,,,,,,,,,,2,0,2,0,11,0,11,0,,,,,,,,,,,,,,,,,,,,,,,,,,,,0,585,,,1251.9764614930027,,,139,Y,star,0.0013973459936096333,,,,,1,0,,,4,,,,,,,,,1248.122233107999,1248.122233107999,1248.122233107999,1248.122233107999,1249.6239227789993,1249.6239227789993,1249.6239227789993,1249.6239227789993,1249.6239227789993,1249.6239227789993,1249.6239227789993,1249.6239227789993,,,,,repeat,letter,lettRpt,k,vtsPrac,1250.4749351350038,0.8183548000015435,1251.9764614930027,,,,,,,,,,,,,,,,,,,,,,47150,2022-09-20_10h22.17.720,vts_reward_expectancy_OFFLINE,2022.2.4,59.923776118264016,
,,,,,,,,,,,,,,,,,,,,,,,,,,,,,,,,,,2,0,2,0,12,0,12,0,,,,,,,,,,,,,,,,,,,,,,,,,,,,0,585,,,1257.0988970149992,,,132,F,hexagon,0.0007420399997499771,,,,,1,0,,,4,,,,,,,,,1252.9608549789991,1252.9608549789991,1252.9608549789991,1252.9608549789991,1254.4627182309996,1254.4627182309996,1254.4627182309996,1254.4627182309996,1254.4627182309996,1254.4627182309996,1254.4627182309996,1254.4627182309996,,,,,repeat,letter,lettRpt,j,vtsPrac,1255.6140414090041,1.1154217479997897,,,,,,,,,,,,,,,,,,,,,,,47150,2022-09-20_10h22.17.720,vts_reward_expectancy_OFFLINE,2022.2.4,59.923776118264016,
,,,,,,,,,,,,,,,,,,,,,,,,,,,,,,,,,,2,0,2,0,13,0,13,0,,,,,,,,,,,,,,,,,,,,,,,,,,,,0,585,,,1261.754053315999,,,125,D,triangle,0.0012927860007039271,,,,,1,0,,,4,,,,,,,,,1258.0833388690007,1258.0833388690007,1258.0833388690007,1258.0833388690007,1259.5849467209991,1259.5849467209991,1259.5849467209991,1259.5849467209991,1259.5849467209991,1259.5849467209991,1259.5849467209991,1259.5849467209991,,,,,repeat,letter,lettRpt,j,vtsPrac,1260.252485101002,0.6501962649999768,1261.754053315999,,,,,,,,,,,,,,,,,,,,,,47150,2022-09-20_10h22.17.720,vts_reward_expectancy_OFFLINE,2022.2.4,59.923776118264016,
,,,,,,,,,,,,,,,,,,,,,,,,,,,,,,,,,,2,0,2,0,14,0,14,0,,,,,,,,,,,,,,,,,,,,,,,,,,,,0,585,,,1267.059854291001,,,181,S,hexagon,0.0007592270048917271,,,,,1,0,,,4,,,,,,,,,1262.7385209700005,1262.7385209700005,1262.7385209700005,1262.7385209700005,1264.2402072710029,1264.2402072710029,1264.2402072710029,1264.2402072710029,1264.2402072710029,1264.2402072710029,1264.2402072710029,1264.2402072710029,,,,,repeat,letter,lettRpt,k,vtsPrac,1265.5584274409994,1.2976915870021912,1267.059854291001,,,,,,,,,,,,,,,,,,,,,,47150,2022-09-20_10h22.17.720,vts_reward_expectancy_OFFLINE,2022.2.4,59.923776118264016,
,,,,,,,,,,,,,,,,,,,,,,,,,,,,,,,,,,2,0,2,0,15,0,15,0,,,,,,,,,,,,,,,,,,,,,,,,,,,,0,585,,,1271.865054629001,,,139,H,star,0.0010593340048217215,,,,,1,0,,,4,,,,,,,,,1268.0441832529978,1268.0441832529978,1268.0441832529978,1268.0441832529978,1269.545904890001,1269.545904890001,1269.545904890001,1269.545904890001,1269.545904890001,1269.545904890001,1269.545904890001,1269.545904890001,,,,,repeat,letter,lettRpt,j,vtsPrac,1270.3634411110033,0.7850147939971066,1271.865054629001,,,,,,,,,,,,,,,,,,,,,,47150,2022-09-20_10h22.17.720,vts_reward_expectancy_OFFLINE,2022.2.4,59.923776118264016,
,,,,,,,,,,,,,,,,,,,,,,,,,,,,,,,,,,,,,,,,,,0,0,0,0,,,,,,,,,,,,,,,,,,,,,,,,0,585,,,1285.9806114380044,,,167,F,circle,0.0016288839979097247,,,,,1,0,,,,,,,,,,,,1281.8261314300034,1281.8261314300034,1281.8261314300034,1281.8261314300034,1283.327734063998,1283.327734063998,1283.327734063998,1283.327734063998,1283.327734063998,1283.327734063998,1283.327734063998,1283.327734063998,,,,,repeat,letter,lettRpt,j,noRew,,1.1133892220022972,,0,1284.4792651410025,,,,,,,,,,,,,,,,,,,,47150,2022-09-20_10h22.17.720,vts_reward_expectancy_OFFLINE,2022.2.4,59.923776118264016,
,,,,,,,,,,,,,,,,,,,,,,,,,,,,,,,,,,,,,,,,,,1,0,1,0,,,,,,,,,,,,,,,,,,,,,,,,0,585,,,1290.8526416329987,,,125,Y,triangle,0.0013326999978744425,,,,,1,0,,,,,,,,,,,,1286.9483135830014,1286.9483135830014,1286.9483135830014,1286.9483135830014,1288.4502532429979,1288.4502532429979,1288.4502532429979,1288.4502532429979,1288.4502532429979,1288.4502532429979,1288.4502532429979,1288.4502532429979,,,,,repeat,letter,lettRpt,k,noRew,,0.8794179219985381,,0,1289.351368431002,1290.8526416329987,,,,,,,,,,,,,,,,,,,47150,2022-09-20_10h22.17.720,vts_reward_expectancy_OFFLINE,2022.2.4,59.923776118264016,
,,,,,,,,,,,,,,,,,,,,,,,,,,,,,,,,,,,,,,,,,,2,0,2,0,,,,,,,,,,,,,,,,,,,,,,,,0,585,,,1295.958325863001,,1296.4590198150036,146,S,star,0.0010331469966331497,,,,,1,0,,,,,,,,,,,,1291.8371819579988,1291.8371819579988,1291.8371819579988,1291.8371819579988,1293.3389949000048,1293.3389949000048,1293.3389949000048,1293.3389949000048,1293.3389949000048,1293.3389949000048,1293.3389949000048,1293.3389949000048,,,,,repeat,letter,lettRpt,k,noRew,,1.0860248070021044,,0,1294.4567160529987,1295.958325863001,,,,,,,,,,,,,,,,,,,47150,2022-09-20_10h22.17.720,vts_reward_expectancy_OFFLINE,2022.2.4,59.923776118264016,
,,,,,,,,,,,,,,,,,,,,,,,,,,,,,,,,,,,,,,,,,,3,0,3,0,,,,,,,,,,,,,,,,,,,,,,,,0,585,,,1300.7303369610017,,,181,H,hexagon,0.0011548170004971325,,,,,1,0,,,,,,,,,,,,1296.9427658130007,1296.9427658130007,1296.9427658130007,1296.9427658130007,1298.444675136001,1298.444675136001,1298.444675136001,1298.444675136001,1298.444675136001,1298.444675136001,1298.444675136001,1298.444675136001,,,,,repeat,letter,lettRpt,j,noRew,,0.7668626800004859,,0,1299.2292010480014,1300.7303369610017,,,,,,,,,,,,,,,,,,,47150,2022-09-20_10h22.17.720,vts_reward_expectancy_OFFLINE,2022.2.4,59.923776118264016,
,,,,,,,,,,,,,,,,,,,,,,,,,,,,,,,,,,,,,,,,,,4,0,4,0,,,,,,,,,,,,,,,,,,,,,,,,0,585,,,1305.4188223329984,,,167,F,triangle,0.0008347330003743991,,,,,1,0,,,,,,,,,,,,1301.7149924179976,1301.7149924179976,1301.7149924179976,1301.7149924179976,1303.216448569001,1303.216448569001,1303.216448569001,1303.216448569001,1303.216448569001,1303.216448569001,1303.216448569001,1303.216448569001,,,,,repeat,letter,lettRpt,j,noRew,,0.6817069649987388,,0,1303.9177889159982,1305.4188223329984,,,,,,,,,,,,,,,,,,,47150,2022-09-20_10h22.17.720,vts_reward_expectancy_OFFLINE,2022.2.4,59.923776118264016,
,,,,,,,,,,,,,,,,,,,,,,,,,,,,,,,,,,,,,,,,,,5,0,5,0,,,,,,,,,,,,,,,,,,,,,,,,0,585,,,1310.2407054229989,,,125,Y,circle,0.0009789120013010688,,,,,1,0,,,,,,,,,,,,1306.4031855249996,1306.4031855249996,1306.4031855249996,1306.4031855249996,1307.9048580960007,1307.9048580960007,1307.9048580960007,1307.9048580960007,1307.9048580960007,1307.9048580960007,1307.9048580960007,1307.9048580960007,,,,,repeat,letter,lettRpt,k,noRew,,0.801576465004473,,0,1308.7391942750037,1310.2407054229989,,,,,,,,,,,,,,,,,,,47150,2022-09-20_10h22.17.720,vts_reward_expectancy_OFFLINE,2022.2.4,59.923776118264016,
,,,,,,,,,,,,,,,,,,,,,,,,,,,,,,,,,,,,,,,,,,6,0,6,0,,,,,,,,,,,,,,,,,,,,,,,,0,585,,,1315.179691024001,,,146,S,hexagon,0.0011677900038193911,,,,,1,0,,,,,,,,,,,,1311.2252371190043,1311.2252371190043,1311.2252371190043,1311.2252371190043,1312.7268960110014,1312.7268960110014,1312.7268960110014,1312.7268960110014,1312.7268960110014,1312.7268960110014,1312.7268960110014,1312.7268960110014,,,,,repeat,letter,lettRpt,k,noRew,,0.923923318994639,,0,1313.6784523509996,1315.179691024001,,,,,,,,,,,,,,,,,,,47150,2022-09-20_10h22.17.720,vts_reward_expectancy_OFFLINE,2022.2.4,59.923776118264016,
,,,,,,,,,,,,,,,,,,,,,,,,,,,,,,,,,,,,,,,,,,7,0,7,0,,,,,,,,,,,,,,,,,,,,,,,,0,585,,,1319.868135415003,,,181,H,star,0.0013183799965190701,,,,,1,0,,,,,,,,,,,,1316.1641845609993,1316.1641845609993,1316.1641845609993,1316.1641845609993,1317.6656294440036,1317.6656294440036,1317.6656294440036,1317.6656294440036,1317.6656294440036,1317.6656294440036,1317.6656294440036,1317.6656294440036,,,,,repeat,letter,lettRpt,j,noRew,,0.679857611998159,,0,1318.366600538,,,,,,,,,,,,,,,,,,,,47150,2022-09-20_10h22.17.720,vts_reward_expectancy_OFFLINE,2022.2.4,59.923776118264016,
,,,,,,,,,,,,,,,,,,,,,,,,,,,,,,,,,,,,,,,,,,8,0,8,0,,,,,,,,,,,,,,,,,,,,,,,,0,585,,,1324.4900264780008,,,174,Y,circle,0.00135380699794041,,,,,1,0,,,,,,,,,,,,1320.852514504004,1320.852514504004,1320.852514504004,1320.852514504004,1322.3542239130038,1322.3542239130038,1322.3542239130038,1322.3542239130038,1322.3542239130038,1322.3542239130038,1322.3542239130038,1322.3542239130038,,,,,repeat,letter,lettRpt,k,noRew,,0.6079891720000887,,0,1322.9885482750033,,,,,,,,,,,,,,,,,,,,47150,2022-09-20_10h22.17.720,vts_reward_expectancy_OFFLINE,2022.2.4,59.923776118264016,
,,,,,,,,,,,,,,,,,,,,,,,,,,,,,,,,,,,,,,,,,,9,0,9,0,,,,,,,,,,,,,,,,,,,,,,,,0,585,,,1329.094996935004,,,167,F,hexagon,0.001265562001208309,,,,,1,0,,,,,,,,,,,,1325.4743625410047,1325.4743625410047,1325.4743625410047,1325.4743625410047,1326.9761404890014,1326.9761404890014,1326.9761404890014,1326.9761404890014,1326.9761404890014,1326.9761404890014,1326.9761404890014,1326.9761404890014,,,,,repeat,letter,lettRpt,j,noRew,,0.5930342459978419,,0,1327.5934418510005,,,,,,,,,,,,,,,,,,,,47150,2022-09-20_10h22.17.720,vts_reward_expectancy_OFFLINE,2022.2.4,59.923776118264016,
,,,,,,,,,,,,,,,,,,,,,,,,,,,,,,,,,,,,,,,,,,10,0,10,0,,,,,,,,,,,,,,,,,,,,,,,,0,585,,,1333.9504957600002,,,181,U,hexagon,0.001268929998332169,,,,,1,0,,,,,,,,,,,,1330.0793209990006,1330.0793209990006,1330.0793209990006,1330.0793209990006,1331.5810668460035,1331.5810668460035,1331.5810668460035,1331.5810668460035,1331.5810668460035,1331.5810668460035,1331.5810668460035,1331.5810668460035,,,,,repeat,letter,lettRpt,k,noRew,,0.8451257620035904,,0,1332.449035327998,,,,,,,,,,,,,,,,,,,,47150,2022-09-20_10h22.17.720,vts_reward_expectancy_OFFLINE,2022.2.4,59.923776118264016,
,,,,,,,,,,,,,,,,,,,,,,,,,,,,,,,,,,,,,,,,,,11,0,11,0,,,,,,,,,,,,,,,,,,,,,,,,0,585,,,1339.0393734099998,,,160,S,circle,0.0013253069992060773,,,,,1,0,,,,,,,,,,,,1334.934837875,1334.934837875,1334.934837875,1334.934837875,1336.4363641599994,1336.4363641599994,1336.4363641599994,1336.4363641599994,1336.4363641599994,1336.4363641599994,1336.4363641599994,1336.4363641599994,,,,,repeat,letter,lettRpt,k,noRew,,1.0778609779954422,,0,1337.5380907729996,,,,,,,,,,,,,,,,,,,,47150,2022-09-20_10h22.17.720,vts_reward_expectancy_OFFLINE,2022.2.4,59.923776118264016,
,,,,,,,,,,,,,,,,,,,,,,,,,,,,,,,,,,,,,,,,,,12,0,12,0,,,,,,,,,,,,,,,,,,,,,,,,0,585,,,1343.711032281004,,,146,U,circle,0.0014272430053097196,,,,,1,0,,,,,,,,,,,,1340.0236383590018,1340.0236383590018,1340.0236383590018,1340.0236383590018,1341.525518856004,1341.525518856004,1341.525518856004,1341.525518856004,1341.525518856004,1341.525518856004,1341.525518856004,1341.525518856004,,,,,repeat,letter,lettRpt,k,noRew,,0.6602847820031457,,0,1342.2098247100002,,,,,,,,,,,,,,,,,,,,47150,2022-09-20_10h22.17.720,vts_reward_expectancy_OFFLINE,2022.2.4,59.923776118264016,
