LTriangleOpac,LCircleOpac,LHexagonOpac,LStarOpac,RTriangleOpac,RCircleOpac,RHexagonOpac,RStarOpac,LShape_ID,RShape_ID,training_blocks.thisRepN,training_blocks.thisTrialN,training_blocks.thisN,training_blocks.thisIndex,training.thisRepN,training.thisTrialN,training.thisN,training.thisIndex,task1_prac_redo.thisRepN,task1_prac_redo.thisTrialN,task1_prac_redo.thisN,task1_prac_redo.thisIndex,task1_prac_trials.thisRepN,task1_prac_trials.thisTrialN,task1_prac_trials.thisN,task1_prac_trials.thisIndex,task2_prac_redo.thisRepN,task2_prac_redo.thisTrialN,task2_prac_redo.thisN,task2_prac_redo.thisIndex,task2_praac_trials.thisRepN,task2_praac_trials.thisTrialN,task2_praac_trials.thisN,task2_praac_trials.thisIndex,vts_prac_redo.thisRepN,vts_prac_redo.thisTrialN,vts_prac_redo.thisN,vts_prac_redo.thisIndex,vts_practice_trials.thisRepN,vts_practice_trials.thisTrialN,vts_practice_trials.thisN,vts_practice_trials.thisIndex,trials_norew.thisRepN,trials_norew.thisTrialN,trials_norew.thisN,trials_norew.thisIndex,block.thisRepN,block.thisTrialN,block.thisN,block.thisIndex,trials_rew.thisRepN,trials_rew.thisTrialN,trials_rew.thisN,trials_rew.thisIndex,key_resp.started,key_resp.keys,key_resp.rt,left_circle.started,right_circle.started,left_triangle.started,right_triangle.started,left_star.started,right_star.started,left_hexagon.started,right_hexagon.started,training_fix.started,training_resp.started,training_resp.keys,training_resp.rt,points_trial,points_cumul,trainBlock,training_feedback_txt.started,fix.started,training_feedback_txt.stopped,fix.stopped,curr_topStim,curr_bottStim,curr_shape,ISI.started,tgt_fix_prac1.started,top_target_prac1.started,bott_target_prac1.started,target_resp_prac1.started,acc,E1,target_resp_prac1.keys,target_resp_prac1.rt,pracBlock,prac_fback_text.started,tgt_fix_prac2.started,top_target_prac2.started,bott_target_prac2.started,target_resp_prac2.started,target_resp_prac2.keys,target_resp_prac2.rt,star.started,hegagon.started,triangle.started,circle.started,star.stopped,hegagon.stopped,triangle.stopped,circle.stopped,top_target.started,tgt_fix.started,bot_target.started,target_resp.started,alt,task,condition,target_resp.keys,target_resp.rt,rewCond,vts_fback.started,blockNum,norew_fback.started,top_target.stopped,tgt_fix.stopped,bot_target.stopped,target_resp.stopped,norew_fback.stopped,key_resp_2.keys,key_resp_2.rt,feedbk_text.started,feedbk_text.stopped,text_3.started,text_3.stopped,button.started,debrief.index,debrief.itemText,debrief.type,debrief.granularity,debrief.font,debrief.markerColor,debrief.response,debrief.rt,button.numClicks,button.timesOn,button.timesOff,participant,date,expName,psychopyVersion,frameRate,
,,,,,,,,,,,,,,,,,,,,,,,,,,,,,,,,,,,,,,,,,,,,,,,,,,,,,,17.646669925001333,space,14.300003014999675,,,,,,,,,,,,,,,,,,,,,,,,,,,,,,,,,,,,,,,,,,,,,,,,,,,,,,,,,,,,,,,,,,,,,,,,,,,,,,,,,,,,73676,2022-09-20_10h04.50.054,vts_reward_expectancy_OFFLINE,2022.2.4,59.940003293777984,
0,0,1,0,0,1,0,0,hexagon,circle,0,0,0,0,0,0,0,7,,,,,,,,,,,,,,,,,,,,,,,,,,,,,,,,,,,,,,,,52.37806142200134,52.37806142200134,52.37806142200134,52.37806142200134,52.37806142200134,52.37806142200134,52.37806142200134,52.37806142200134,52.37806142200134,52.37806142200134,l,1.3686473930065404,1,1,0,53.76446034199762,55.266079101995274,,,,,,,,,,,,,,,,,,,,,,,,,,,,,,,,,,,,,,,,,,,,,,,,,,,,,,,,,,,,,,,,,,,73676,2022-09-20_10h04.50.054,vts_reward_expectancy_OFFLINE,2022.2.4,59.940003293777984,
0,0,1,0,1,0,0,0,hexagon,triangle,0,0,0,0,0,1,1,6,,,,,,,,,,,,,,,,,,,,,,,,,,,,,,,,,,,,,,,,55.76664426899515,55.76664426899515,55.76664426899515,55.76664426899515,55.76664426899515,55.76664426899515,55.76664426899515,55.76664426899515,55.76664426899515,55.76664426899515,a,1.827978430002986,10,11,0,57.61857923399657,59.12025230099971,,,,,,,,,,,,,,,,,,,,,,,,,,,,,,,,,,,,,,,,,,,,,,,,,,,,,,,,,,,,,,,,,,,73676,2022-09-20_10h04.50.054,vts_reward_expectancy_OFFLINE,2022.2.4,59.940003293777984,
0,1,0,0,0,0,1,0,circle,hexagon,0,0,0,0,0,2,2,4,,,,,,,,,,,,,,,,,,,,,,,,,,,,,,,,,,,,,,,,59.62075044199446,59.62075044199446,59.62075044199446,59.62075044199446,59.62075044199446,59.62075044199446,59.62075044199446,59.62075044199446,59.62075044199446,59.62075044199446,l,1.2529995850054547,10,21,0,60.90557362799882,62.4073053999964,,,,,,,,,,,,,,,,,,,,,,,,,,,,,,,,,,,,,,,,,,,,,,,,,,,,,,,,,,,,,,,,,,,73676,2022-09-20_10h04.50.054,vts_reward_expectancy_OFFLINE,2022.2.4,59.940003293777984,
0,0,0,1,1,0,0,0,star,triangle,0,0,0,0,0,3,3,9,,,,,,,,,,,,,,,,,,,,,,,,,,,,,,,,,,,,,,,,62.90781585899822,62.90781585899822,62.90781585899822,62.90781585899822,62.90781585899822,62.90781585899822,62.90781585899822,62.90781585899822,62.90781585899822,62.90781585899822,a,1.7992751620040508,1,22,0,64.72645254699455,66.22812593799608,,,,,,,,,,,,,,,,,,,,,,,,,,,,,,,,,,,,,,,,,,,,,,,,,,,,,,,,,,,,,,,,,,,73676,2022-09-20_10h04.50.054,vts_reward_expectancy_OFFLINE,2022.2.4,59.940003293777984,
0,0,1,0,0,0,0,1,hexagon,star,0,0,0,0,0,4,4,8,,,,,,,,,,,,,,,,,,,,,,,,,,,,,,,,,,,,,,,,66.7288268409975,66.7288268409975,66.7288268409975,66.7288268409975,66.7288268409975,66.7288268409975,66.7288268409975,66.7288268409975,66.7288268409975,66.7288268409975,a,1.3853638760047033,10,32,0,68.1469728459997,69.64848363199417,,,,,,,,,,,,,,,,,,,,,,,,,,,,,,,,,,,,,,,,,,,,,,,,,,,,,,,,,,,,,,,,,,,73676,2022-09-20_10h04.50.054,vts_reward_expectancy_OFFLINE,2022.2.4,59.940003293777984,
0,0,0,1,0,1,0,0,star ,circle,0,0,0,0,0,5,5,10,,,,,,,,,,,,,,,,,,,,,,,,,,,,,,,,,,,,,,,,70.14914117800072,70.14914117800072,70.14914117800072,70.14914117800072,70.14914117800072,70.14914117800072,70.14914117800072,70.14914117800072,70.14914117800072,70.14914117800072,a,1.4608401540026534,10,42,0,71.63408465899556,73.13582569499704,,,,,,,,,,,,,,,,,,,,,,,,,,,,,,,,,,,,,,,,,,,,,,,,,,,,,,,,,,,,,,,,,,,73676,2022-09-20_10h04.50.054,vts_reward_expectancy_OFFLINE,2022.2.4,59.940003293777984,
0,0,0,1,0,0,1,0,star,hexagon,0,0,0,0,0,6,6,11,,,,,,,,,,,,,,,,,,,,,,,,,,,,,,,,,,,,,,,,73.63623418899806,73.63623418899806,73.63623418899806,73.63623418899806,73.63623418899806,73.63623418899806,73.63623418899806,73.63623418899806,73.63623418899806,73.63623418899806,a,0.7507456050007022,1,43,0,74.40383235299669,75.90566680099437,,,,,,,,,,,,,,,,,,,,,,,,,,,,,,,,,,,,,,,,,,,,,,,,,,,,,,,,,,,,,,,,,,,73676,2022-09-20_10h04.50.054,vts_reward_expectancy_OFFLINE,2022.2.4,59.940003293777984,
1,0,0,0,0,1,0,0,triangle,circle,0,0,0,0,0,7,7,0,,,,,,,,,,,,,,,,,,,,,,,,,,,,,,,,,,,,,,,,76.40613974999724,76.40613974999724,76.40613974999724,76.40613974999724,76.40613974999724,76.40613974999724,76.40613974999724,76.40613974999724,76.40613974999724,76.40613974999724,a,1.3008072300071944,10,53,0,77.7242871349954,79.22577894999995,,,,,,,,,,,,,,,,,,,,,,,,,,,,,,,,,,,,,,,,,,,,,,,,,,,,,,,,,,,,,,,,,,,73676,2022-09-20_10h04.50.054,vts_reward_expectancy_OFFLINE,2022.2.4,59.940003293777984,
0,1,0,0,1,0,0,0,circle,triangle,0,0,0,0,0,8,8,3,,,,,,,,,,,,,,,,,,,,,,,,,,,,,,,,,,,,,,,,79.72638721700059,79.72638721700059,79.72638721700059,79.72638721700059,79.72638721700059,79.72638721700059,79.72638721700059,79.72638721700059,79.72638721700059,79.72638721700059,l,0.8352739950059913,10,63,0,80.59399820999533,82.09555275699677,,,,,,,,,,,,,,,,,,,,,,,,,,,,,,,,,,,,,,,,,,,,,,,,,,,,,,,,,,,,,,,,,,,73676,2022-09-20_10h04.50.054,vts_reward_expectancy_OFFLINE,2022.2.4,59.940003293777984,
0,1,0,0,0,0,0,1,circle,star,0,0,0,0,0,9,9,5,,,,,,,,,,,,,,,,,,,,,,,,,,,,,,,,,,,,,,,,82.5962899399965,82.5962899399965,82.5962899399965,82.5962899399965,82.5962899399965,82.5962899399965,82.5962899399965,82.5962899399965,82.5962899399965,82.5962899399965,l,1.191273935000936,10,73,0,83.81423148099566,85.31580796799972,,,,,,,,,,,,,,,,,,,,,,,,,,,,,,,,,,,,,,,,,,,,,,,,,,,,,,,,,,,,,,,,,,,73676,2022-09-20_10h04.50.054,vts_reward_expectancy_OFFLINE,2022.2.4,59.940003293777984,
1,0,0,0,0,0,1,0,triangle,hexagon,0,0,0,0,0,10,10,1,,,,,,,,,,,,,,,,,,,,,,,,,,,,,,,,,,,,,,,,85.81648587100062,85.81648587100062,85.81648587100062,85.81648587100062,85.81648587100062,85.81648587100062,85.81648587100062,85.81648587100062,85.81648587100062,85.81648587100062,l,1.034523103000538,10,83,0,86.86764431499614,88.3692275239955,,,,,,,,,,,,,,,,,,,,,,,,,,,,,,,,,,,,,,,,,,,,,,,,,,,,,,,,,,,,,,,,,,,73676,2022-09-20_10h04.50.054,vts_reward_expectancy_OFFLINE,2022.2.4,59.940003293777984,
1,0,0,0,0,0,0,1,triangle,star,0,0,0,0,0,11,11,2,,,,,,,,,,,,,,,,,,,,,,,,,,,,,,,,,,,,,,,,88.86978920199908,88.86978920199908,88.86978920199908,88.86978920199908,88.86978920199908,88.86978920199908,88.86978920199908,88.86978920199908,88.86978920199908,88.86978920199908,l,1.012133657000959,10,93,0,89.90424967400031,91.40589781399467,,,,,,,,,,,,,,,,,,,,,,,,,,,,,,,,,,,,,,,,,,,,,,,,,,,,,,,,,,,,,,,,,,,73676,2022-09-20_10h04.50.054,vts_reward_expectancy_OFFLINE,2022.2.4,59.940003293777984,
0,0,1,0,0,0,0,1,hexagon,star,0,0,0,0,1,0,12,8,,,,,,,,,,,,,,,,,,,,,,,,,,,,,,,,,,,,,,,,91.90638126999693,91.90638126999693,91.90638126999693,91.90638126999693,91.90638126999693,91.90638126999693,91.90638126999693,91.90638126999693,91.90638126999693,91.90638126999693,l,0.8800644060029299,1,94,0,92.80748498799949,94.3091727189967,,,,,,,,,,,,,,,,,,,,,,,,,,,,,,,,,,,,,,,,,,,,,,,,,,,,,,,,,,,,,,,,,,,73676,2022-09-20_10h04.50.054,vts_reward_expectancy_OFFLINE,2022.2.4,59.940003293777984,
1,0,0,0,0,0,0,1,triangle,star,0,0,0,0,1,1,13,2,,,,,,,,,,,,,,,,,,,,,,,,,,,,,,,,,,,,,,,,94.80965994500002,94.80965994500002,94.80965994500002,94.80965994500002,94.80965994500002,94.80965994500002,94.80965994500002,94.80965994500002,94.80965994500002,94.80965994500002,l,0.7129156950031756,10,104,0,95.5437626089988,97.04538508699625,,,,,,,,,,,,,,,,,,,,,,,,,,,,,,,,,,,,,,,,,,,,,,,,,,,,,,,,,,,,,,,,,,,73676,2022-09-20_10h04.50.054,vts_reward_expectancy_OFFLINE,2022.2.4,59.940003293777984,
0,1,0,0,1,0,0,0,circle,triangle,0,0,0,0,1,2,14,3,,,,,,,,,,,,,,,,,,,,,,,,,,,,,,,,,,,,,,,,97.54618341899914,97.54618341899914,97.54618341899914,97.54618341899914,97.54618341899914,97.54618341899914,97.54618341899914,97.54618341899914,97.54618341899914,97.54618341899914,l,0.9365794519981137,1,105,0,98.51371630699578,100.01534169200022,,,,,,,,,,,,,,,,,,,,,,,,,,,,,,,,,,,,,,,,,,,,,,,,,,,,,,,,,,,,,,,,,,,73676,2022-09-20_10h04.50.054,vts_reward_expectancy_OFFLINE,2022.2.4,59.940003293777984,
0,1,0,0,0,0,0,1,circle,star,0,0,0,0,1,3,15,5,,,,,,,,,,,,,,,,,,,,,,,,,,,,,,,,,,,,,,,,100.51591652899515,100.51591652899515,100.51591652899515,100.51591652899515,100.51591652899515,100.51591652899515,100.51591652899515,100.51591652899515,100.51591652899515,100.51591652899515,l,0.9513358580006752,10,115,0,101.48362028200063,102.98518857100134,,,,,,,,,,,,,,,,,,,,,,,,,,,,,,,,,,,,,,,,,,,,,,,,,,,,,,,,,,,,,,,,,,,73676,2022-09-20_10h04.50.054,vts_reward_expectancy_OFFLINE,2022.2.4,59.940003293777984,
0,0,0,1,0,0,1,0,star,hexagon,0,0,0,0,1,4,16,11,,,,,,,,,,,,,,,,,,,,,,,,,,,,,,,,,,,,,,,,103.48605505199521,103.48605505199521,103.48605505199521,103.48605505199521,103.48605505199521,103.48605505199521,103.48605505199521,103.48605505199521,103.48605505199521,103.48605505199521,l,0.612474949004536,10,125,0,104.11997777399665,105.62154758499673,,,,,,,,,,,,,,,,,,,,,,,,,,,,,,,,,,,,,,,,,,,,,,,,,,,,,,,,,,,,,,,,,,,73676,2022-09-20_10h04.50.054,vts_reward_expectancy_OFFLINE,2022.2.4,59.940003293777984,
0,0,0,1,0,1,0,0,star ,circle,0,0,0,0,1,5,17,10,,,,,,,,,,,,,,,,,,,,,,,,,,,,,,,,,,,,,,,,106.12200547899556,106.12200547899556,106.12200547899556,106.12200547899556,106.12200547899556,106.12200547899556,106.12200547899556,106.12200547899556,106.12200547899556,106.12200547899556,a,0.9523452249995898,10,135,0,107.10650753699883,108.6081678720002,,,,,,,,,,,,,,,,,,,,,,,,,,,,,,,,,,,,,,,,,,,,,,,,,,,,,,,,,,,,,,,,,,,73676,2022-09-20_10h04.50.054,vts_reward_expectancy_OFFLINE,2022.2.4,59.940003293777984,
1,0,0,0,0,0,1,0,triangle,hexagon,0,0,0,0,1,6,18,1,,,,,,,,,,,,,,,,,,,,,,,,,,,,,,,,,,,,,,,,109.1087242279973,109.1087242279973,109.1087242279973,109.1087242279973,109.1087242279973,109.1087242279973,109.1087242279973,109.1087242279973,109.1087242279973,109.1087242279973,l,0.8209758340017288,10,145,0,109.95973531100026,111.46136078799464,,,,,,,,,,,,,,,,,,,,,,,,,,,,,,,,,,,,,,,,,,,,,,,,,,,,,,,,,,,,,,,,,,,73676,2022-09-20_10h04.50.054,vts_reward_expectancy_OFFLINE,2022.2.4,59.940003293777984,
0,0,0,1,1,0,0,0,star,triangle,0,0,0,0,1,7,19,9,,,,,,,,,,,,,,,,,,,,,,,,,,,,,,,,,,,,,,,,111.96185503599554,111.96185503599554,111.96185503599554,111.96185503599554,111.96185503599554,111.96185503599554,111.96185503599554,111.96185503599554,111.96185503599554,111.96185503599554,l,1.1762700850013061,1,146,0,113.16322931499599,114.6650801249998,,,,,,,,,,,,,,,,,,,,,,,,,,,,,,,,,,,,,,,,,,,,,,,,,,,,,,,,,,,,,,,,,,,73676,2022-09-20_10h04.50.054,vts_reward_expectancy_OFFLINE,2022.2.4,59.940003293777984,
1,0,0,0,0,1,0,0,triangle,circle,0,0,0,0,1,8,20,0,,,,,,,,,,,,,,,,,,,,,,,,,,,,,,,,,,,,,,,,115.16544674399483,115.16544674399483,115.16544674399483,115.16544674399483,115.16544674399483,115.16544674399483,115.16544674399483,115.16544674399483,115.16544674399483,115.16544674399483,a,0.9242840680017252,10,156,0,116.11631350099924,117.61797177999688,,,,,,,,,,,,,,,,,,,,,,,,,,,,,,,,,,,,,,,,,,,,,,,,,,,,,,,,,,,,,,,,,,,73676,2022-09-20_10h04.50.054,vts_reward_expectancy_OFFLINE,2022.2.4,59.940003293777984,
0,0,1,0,0,1,0,0,hexagon,circle,0,0,0,0,1,9,21,7,,,,,,,,,,,,,,,,,,,,,,,,,,,,,,,,,,,,,,,,118.11847477699484,118.11847477699484,118.11847477699484,118.11847477699484,118.11847477699484,118.11847477699484,118.11847477699484,118.11847477699484,118.11847477699484,118.11847477699484,a,1.4275455750030233,1,157,0,119.57013252999604,121.07185422899784,,,,,,,,,,,,,,,,,,,,,,,,,,,,,,,,,,,,,,,,,,,,,,,,,,,,,,,,,,,,,,,,,,,73676,2022-09-20_10h04.50.054,vts_reward_expectancy_OFFLINE,2022.2.4,59.940003293777984,
0,0,1,0,1,0,0,0,hexagon,triangle,0,0,0,0,1,10,22,6,,,,,,,,,,,,,,,,,,,,,,,,,,,,,,,,,,,,,,,,121.57230740799423,121.57230740799423,121.57230740799423,121.57230740799423,121.57230740799423,121.57230740799423,121.57230740799423,121.57230740799423,121.57230740799423,121.57230740799423,a,0.8298444880056195,1,158,0,122.42327478999505,123.92501348199585,,,,,,,,,,,,,,,,,,,,,,,,,,,,,,,,,,,,,,,,,,,,,,,,,,,,,,,,,,,,,,,,,,,73676,2022-09-20_10h04.50.054,vts_reward_expectancy_OFFLINE,2022.2.4,59.940003293777984,
0,1,0,0,0,0,1,0,circle,hexagon,0,0,0,0,1,11,23,4,,,,,,,,,,,,,,,,,,,,,,,,,,,,,,,,,,,,,,,,124.42546670499723,124.42546670499723,124.42546670499723,124.42546670499723,124.42546670499723,124.42546670499723,124.42546670499723,124.42546670499723,124.42546670499723,124.42546670499723,l,0.6171895959996618,10,168,0,125.05956498999876,126.5613673150001,,,,,,,,,,,,,,,,,,,,,,,,,,,,,,,,,,,,,,,,,,,,,,,,,,,,,,,,,,,,,,,,,,,73676,2022-09-20_10h04.50.054,vts_reward_expectancy_OFFLINE,2022.2.4,59.940003293777984,
0,0,1,0,0,1,0,0,hexagon,circle,0,0,0,0,2,0,24,7,,,,,,,,,,,,,,,,,,,,,,,,,,,,,,,,,,,,,,,,127.06188596399443,127.06188596399443,127.06188596399443,127.06188596399443,127.06188596399443,127.06188596399443,127.06188596399443,127.06188596399443,127.06188596399443,127.06188596399443,a,0.7170046269966406,10,178,0,127.79623508399527,129.2978227029962,,,,,,,,,,,,,,,,,,,,,,,,,,,,,,,,,,,,,,,,,,,,,,,,,,,,,,,,,,,,,,,,,,,73676,2022-09-20_10h04.50.054,vts_reward_expectancy_OFFLINE,2022.2.4,59.940003293777984,
1,0,0,0,0,1,0,0,triangle,circle,0,0,0,0,2,1,25,0,,,,,,,,,,,,,,,,,,,,,,,,,,,,,,,,,,,,,,,,129.79814395200083,129.79814395200083,129.79814395200083,129.79814395200083,129.79814395200083,129.79814395200083,129.79814395200083,129.79814395200083,129.79814395200083,129.79814395200083,a,1.1636437350025517,1,179,0,130.98300558399933,132.48452619599993,,,,,,,,,,,,,,,,,,,,,,,,,,,,,,,,,,,,,,,,,,,,,,,,,,,,,,,,,,,,,,,,,,,73676,2022-09-20_10h04.50.054,vts_reward_expectancy_OFFLINE,2022.2.4,59.940003293777984,
0,1,0,0,0,0,0,1,circle,star,0,0,0,0,2,2,26,5,,,,,,,,,,,,,,,,,,,,,,,,,,,,,,,,,,,,,,,,132.98512836699956,132.98512836699956,132.98512836699956,132.98512836699956,132.98512836699956,132.98512836699956,132.98512836699956,132.98512836699956,132.98512836699956,132.98512836699956,l,0.8418628689978505,1,180,0,133.85275388599985,135.35433241699502,,,,,,,,,,,,,,,,,,,,,,,,,,,,,,,,,,,,,,,,,,,,,,,,,,,,,,,,,,,,,,,,,,,73676,2022-09-20_10h04.50.054,vts_reward_expectancy_OFFLINE,2022.2.4,59.940003293777984,
1,0,0,0,0,0,0,1,triangle,star,0,0,0,0,2,3,27,2,,,,,,,,,,,,,,,,,,,,,,,,,,,,,,,,,,,,,,,,135.85485816699656,135.85485816699656,135.85485816699656,135.85485816699656,135.85485816699656,135.85485816699656,135.85485816699656,135.85485816699656,135.85485816699656,135.85485816699656,l,0.6028673260007054,10,190,0,136.48901304799801,137.99060820999875,,,,,,,,,,,,,,,,,,,,,,,,,,,,,,,,,,,,,,,,,,,,,,,,,,,,,,,,,,,,,,,,,,,73676,2022-09-20_10h04.50.054,vts_reward_expectancy_OFFLINE,2022.2.4,59.940003293777984,
0,0,1,0,1,0,0,0,hexagon,triangle,0,0,0,0,2,4,28,6,,,,,,,,,,,,,,,,,,,,,,,,,,,,,,,,,,,,,,,,138.49110053899494,138.49110053899494,138.49110053899494,138.49110053899494,138.49110053899494,138.49110053899494,138.49110053899494,138.49110053899494,138.49110053899494,138.49110053899494,a,0.7436835170010454,10,200,0,139.2587389179971,140.76036689899775,,,,,,,,,,,,,,,,,,,,,,,,,,,,,,,,,,,,,,,,,,,,,,,,,,,,,,,,,,,,,,,,,,,73676,2022-09-20_10h04.50.054,vts_reward_expectancy_OFFLINE,2022.2.4,59.940003293777984,
0,0,0,1,0,0,1,0,star,hexagon,0,0,0,0,2,5,29,11,,,,,,,,,,,,,,,,,,,,,,,,,,,,,,,,,,,,,,,,141.2609280569959,141.2609280569959,141.2609280569959,141.2609280569959,141.2609280569959,141.2609280569959,141.2609280569959,141.2609280569959,141.2609280569959,141.2609280569959,l,0.5900465360027738,10,210,0,141.87824884199654,143.37994114499452,,,,,,,,,,,,,,,,,,,,,,,,,,,,,,,,,,,,,,,,,,,,,,,,,,,,,,,,,,,,,,,,,,,73676,2022-09-20_10h04.50.054,vts_reward_expectancy_OFFLINE,2022.2.4,59.940003293777984,
0,1,0,0,1,0,0,0,circle,triangle,0,0,0,0,2,6,30,3,,,,,,,,,,,,,,,,,,,,,,,,,,,,,,,,,,,,,,,,143.88049450999824,143.88049450999824,143.88049450999824,143.88049450999824,143.88049450999824,143.88049450999824,143.88049450999824,143.88049450999824,143.88049450999824,143.88049450999824,a,0.7935542480045115,10,220,0,144.69796865799435,146.1997204329964,,,,,,,,,,,,,,,,,,,,,,,,,,,,,,,,,,,,,,,,,,,,,,,,,,,,,,,,,,,,,,,,,,,73676,2022-09-20_10h04.50.054,vts_reward_expectancy_OFFLINE,2022.2.4,59.940003293777984,
0,0,0,1,1,0,0,0,star,triangle,0,0,0,0,2,7,31,9,,,,,,,,,,,,,,,,,,,,,,,,,,,,,,,,,,,,,,,,146.70019008799864,146.70019008799864,146.70019008799864,146.70019008799864,146.70019008799864,146.70019008799864,146.70019008799864,146.70019008799864,146.70019008799864,146.70019008799864,a,0.6937581720048911,10,230,0,147.41780742300034,148.91938477000076,,,,,,,,,,,,,,,,,,,,,,,,,,,,,,,,,,,,,,,,,,,,,,,,,,,,,,,,,,,,,,,,,,,73676,2022-09-20_10h04.50.054,vts_reward_expectancy_OFFLINE,2022.2.4,59.940003293777984,
1,0,0,0,0,0,1,0,triangle,hexagon,0,0,0,0,2,8,32,1,,,,,,,,,,,,,,,,,,,,,,,,,,,,,,,,,,,,,,,,149.41996708299848,149.41996708299848,149.41996708299848,149.41996708299848,149.41996708299848,149.41996708299848,149.41996708299848,149.41996708299848,149.41996708299848,149.41996708299848,l,0.8384808220071136,10,240,0,150.2874803529994,151.7893190199975,,,,,,,,,,,,,,,,,,,,,,,,,,,,,,,,,,,,,,,,,,,,,,,,,,,,,,,,,,,,,,,,,,,73676,2022-09-20_10h04.50.054,vts_reward_expectancy_OFFLINE,2022.2.4,59.940003293777984,
0,1,0,0,0,0,1,0,circle,hexagon,0,0,0,0,2,9,33,4,,,,,,,,,,,,,,,,,,,,,,,,,,,,,,,,,,,,,,,,152.28979632999835,152.28979632999835,152.28979632999835,152.28979632999835,152.28979632999835,152.28979632999835,152.28979632999835,152.28979632999835,152.28979632999835,152.28979632999835,a,1.3120513340036268,1,241,0,153.6244782979993,155.12617974599561,,,,,,,,,,,,,,,,,,,,,,,,,,,,,,,,,,,,,,,,,,,,,,,,,,,,,,,,,,,,,,,,,,,73676,2022-09-20_10h04.50.054,vts_reward_expectancy_OFFLINE,2022.2.4,59.940003293777984,
0,0,1,0,0,0,0,1,hexagon,star,0,0,0,0,2,10,34,8,,,,,,,,,,,,,,,,,,,,,,,,,,,,,,,,,,,,,,,,155.62684409199574,155.62684409199574,155.62684409199574,155.62684409199574,155.62684409199574,155.62684409199574,155.62684409199574,155.62684409199574,155.62684409199574,155.62684409199574,a,1.0003663400057121,1,242,0,156.6444596059955,158.14623536799627,,,,,,,,,,,,,,,,,,,,,,,,,,,,,,,,,,,,,,,,,,,,,,,,,,,,,,,,,,,,,,,,,,,73676,2022-09-20_10h04.50.054,vts_reward_expectancy_OFFLINE,2022.2.4,59.940003293777984,
0,0,0,1,0,1,0,0,star ,circle,0,0,0,0,2,11,35,10,,,,,,,,,,,,,,,,,,,,,,,,,,,,,,,,,,,,,,,,158.64671369500138,158.64671369500138,158.64671369500138,158.64671369500138,158.64671369500138,158.64671369500138,158.64671369500138,158.64671369500138,158.64671369500138,158.64671369500138,l,0.9554368930039345,1,243,0,159.63120711599913,161.13279574400076,,,,,,,,,,,,,,,,,,,,,,,,,,,,,,,,,,,,,,,,,,,,,,,,,,,,,,,,,,,,,,,,,,,73676,2022-09-20_10h04.50.054,vts_reward_expectancy_OFFLINE,2022.2.4,59.940003293777984,
0,0,0,1,0,1,0,0,star ,circle,1,0,1,0,0,0,0,10,,,,,,,,,,,,,,,,,,,,,,,,,,,,,,,,,,,,,,,,165.7441576150013,165.7441576150013,165.7441576150013,165.7441576150013,165.7441576150013,165.7441576150013,165.7441576150013,165.7441576150013,165.7441576150013,165.7441576150013,a,1.0344449840049492,1,244,1,166.80598291699425,168.30751894699642,,,,,,,,,,,,,,,,,,,,,,,,,,,,,,,,,,,,,,,,,,,,,,,,,,,,,,,,,,,,,,,,,,,73676,2022-09-20_10h04.50.054,vts_reward_expectancy_OFFLINE,2022.2.4,59.940003293777984,
1,0,0,0,0,0,1,0,triangle,hexagon,1,0,1,0,0,1,1,1,,,,,,,,,,,,,,,,,,,,,,,,,,,,,,,,,,,,,,,,168.80797375999828,168.80797375999828,168.80797375999828,168.80797375999828,168.80797375999828,168.80797375999828,168.80797375999828,168.80797375999828,168.80797375999828,168.80797375999828,l,0.6829780510015553,10,254,1,169.5087080999947,171.01049988899467,,,,,,,,,,,,,,,,,,,,,,,,,,,,,,,,,,,,,,,,,,,,,,,,,,,,,,,,,,,,,,,,,,,73676,2022-09-20_10h04.50.054,vts_reward_expectancy_OFFLINE,2022.2.4,59.940003293777984,
0,0,0,1,1,0,0,0,star,triangle,1,0,1,0,0,2,2,9,,,,,,,,,,,,,,,,,,,,,,,,,,,,,,,,,,,,,,,,171.51094251299946,171.51094251299946,171.51094251299946,171.51094251299946,171.51094251299946,171.51094251299946,171.51094251299946,171.51094251299946,171.51094251299946,171.51094251299946,a,0.8352171800070209,10,264,1,172.37862416899588,173.8801746780009,,,,,,,,,,,,,,,,,,,,,,,,,,,,,,,,,,,,,,,,,,,,,,,,,,,,,,,,,,,,,,,,,,,73676,2022-09-20_10h04.50.054,vts_reward_expectancy_OFFLINE,2022.2.4,59.940003293777984,
0,1,0,0,0,0,0,1,circle,star,1,0,1,0,0,3,3,5,,,,,,,,,,,,,,,,,,,,,,,,,,,,,,,,,,,,,,,,174.3808304119957,174.3808304119957,174.3808304119957,174.3808304119957,174.3808304119957,174.3808304119957,174.3808304119957,174.3808304119957,174.3808304119957,174.3808304119957,l,0.50979257599829,1,265,1,174.91467528299836,176.41632426499564,,,,,,,,,,,,,,,,,,,,,,,,,,,,,,,,,,,,,,,,,,,,,,,,,,,,,,,,,,,,,,,,,,,73676,2022-09-20_10h04.50.054,vts_reward_expectancy_OFFLINE,2022.2.4,59.940003293777984,
0,0,1,0,0,1,0,0,hexagon,circle,1,0,1,0,0,4,4,7,,,,,,,,,,,,,,,,,,,,,,,,,,,,,,,,,,,,,,,,176.9169286059987,176.9169286059987,176.9169286059987,176.9169286059987,176.9169286059987,176.9169286059987,176.9169286059987,176.9169286059987,176.9169286059987,176.9169286059987,l,0.5011369870044291,1,266,1,177.4507769349948,178.95263592500123,,,,,,,,,,,,,,,,,,,,,,,,,,,,,,,,,,,,,,,,,,,,,,,,,,,,,,,,,,,,,,,,,,,73676,2022-09-20_10h04.50.054,vts_reward_expectancy_OFFLINE,2022.2.4,59.940003293777984,
1,0,0,0,0,0,0,1,triangle,star,1,0,1,0,0,5,5,2,,,,,,,,,,,,,,,,,,,,,,,,,,,,,,,,,,,,,,,,179.45297452600062,179.45297452600062,179.45297452600062,179.45297452600062,179.45297452600062,179.45297452600062,179.45297452600062,179.45297452600062,179.45297452600062,179.45297452600062,a,0.6453679640035261,1,267,1,180.12040771600005,181.6220394330012,,,,,,,,,,,,,,,,,,,,,,,,,,,,,,,,,,,,,,,,,,,,,,,,,,,,,,,,,,,,,,,,,,,73676,2022-09-20_10h04.50.054,vts_reward_expectancy_OFFLINE,2022.2.4,59.940003293777984,
0,0,1,0,0,0,0,1,hexagon,star,1,0,1,0,0,6,6,8,,,,,,,,,,,,,,,,,,,,,,,,,,,,,,,,,,,,,,,,182.12264083699847,182.12264083699847,182.12264083699847,182.12264083699847,182.12264083699847,182.12264083699847,182.12264083699847,182.12264083699847,182.12264083699847,182.12264083699847,a,1.1520775910030352,10,277,1,183.3073867399944,184.8090281939949,,,,,,,,,,,,,,,,,,,,,,,,,,,,,,,,,,,,,,,,,,,,,,,,,,,,,,,,,,,,,,,,,,,73676,2022-09-20_10h04.50.054,vts_reward_expectancy_OFFLINE,2022.2.4,59.940003293777984,
0,1,0,0,0,0,1,0,circle,hexagon,1,0,1,0,0,7,7,4,,,,,,,,,,,,,,,,,,,,,,,,,,,,,,,,,,,,,,,,185.30942550499458,185.30942550499458,185.30942550499458,185.30942550499458,185.30942550499458,185.30942550499458,185.30942550499458,185.30942550499458,185.30942550499458,185.30942550499458,a,1.2285761950042797,1,278,1,186.56088965799427,188.06250609499693,,,,,,,,,,,,,,,,,,,,,,,,,,,,,,,,,,,,,,,,,,,,,,,,,,,,,,,,,,,,,,,,,,,73676,2022-09-20_10h04.50.054,vts_reward_expectancy_OFFLINE,2022.2.4,59.940003293777984,
0,0,1,0,1,0,0,0,hexagon,triangle,1,0,1,0,0,8,8,6,,,,,,,,,,,,,,,,,,,,,,,,,,,,,,,,,,,,,,,,188.5629818390007,188.5629818390007,188.5629818390007,188.5629818390007,188.5629818390007,188.5629818390007,188.5629818390007,188.5629818390007,188.5629818390007,188.5629818390007,a,0.9117872980059474,1,279,1,189.49738905199774,190.9991593550003,,,,,,,,,,,,,,,,,,,,,,,,,,,,,,,,,,,,,,,,,,,,,,,,,,,,,,,,,,,,,,,,,,,73676,2022-09-20_10h04.50.054,vts_reward_expectancy_OFFLINE,2022.2.4,59.940003293777984,
1,0,0,0,0,1,0,0,triangle,circle,1,0,1,0,0,9,9,0,,,,,,,,,,,,,,,,,,,,,,,,,,,,,,,,,,,,,,,,191.49952133400075,191.49952133400075,191.49952133400075,191.49952133400075,191.49952133400075,191.49952133400075,191.49952133400075,191.49952133400075,191.49952133400075,191.49952133400075,l,0.6076836630018079,1,280,1,192.13374354299594,193.63540797699534,,,,,,,,,,,,,,,,,,,,,,,,,,,,,,,,,,,,,,,,,,,,,,,,,,,,,,,,,,,,,,,,,,,73676,2022-09-20_10h04.50.054,vts_reward_expectancy_OFFLINE,2022.2.4,59.940003293777984,
0,0,0,1,0,0,1,0,star,hexagon,1,0,1,0,0,10,10,11,,,,,,,,,,,,,,,,,,,,,,,,,,,,,,,,,,,,,,,,194.13583848499547,194.13583848499547,194.13583848499547,194.13583848499547,194.13583848499547,194.13583848499547,194.13583848499547,194.13583848499547,194.13583848499547,194.13583848499547,a,0.7228442910054582,10,290,1,194.88669042399852,196.38832856699446,,,,,,,,,,,,,,,,,,,,,,,,,,,,,,,,,,,,,,,,,,,,,,,,,,,,,,,,,,,,,,,,,,,73676,2022-09-20_10h04.50.054,vts_reward_expectancy_OFFLINE,2022.2.4,59.940003293777984,
0,1,0,0,1,0,0,0,circle,triangle,1,0,1,0,0,11,11,3,,,,,,,,,,,,,,,,,,,,,,,,,,,,,,,,,,,,,,,,196.88885538400064,196.88885538400064,196.88885538400064,196.88885538400064,196.88885538400064,196.88885538400064,196.88885538400064,196.88885538400064,196.88885538400064,196.88885538400064,a,0.9852172380051343,1,291,1,197.90661120499863,199.40831759299908,,,,,,,,,,,,,,,,,,,,,,,,,,,,,,,,,,,,,,,,,,,,,,,,,,,,,,,,,,,,,,,,,,,73676,2022-09-20_10h04.50.054,vts_reward_expectancy_OFFLINE,2022.2.4,59.940003293777984,
0,0,1,0,0,0,0,1,hexagon,star,1,0,1,0,1,0,12,8,,,,,,,,,,,,,,,,,,,,,,,,,,,,,,,,,,,,,,,,199.90883827699872,199.90883827699872,199.90883827699872,199.90883827699872,199.90883827699872,199.90883827699872,199.90883827699872,199.90883827699872,199.90883827699872,199.90883827699872,l,0.7744760679997853,1,292,1,200.70975095399626,202.21137273599743,,,,,,,,,,,,,,,,,,,,,,,,,,,,,,,,,,,,,,,,,,,,,,,,,,,,,,,,,,,,,,,,,,,73676,2022-09-20_10h04.50.054,vts_reward_expectancy_OFFLINE,2022.2.4,59.940003293777984,
0,1,0,0,0,0,0,1,circle,star,1,0,1,0,1,1,13,5,,,,,,,,,,,,,,,,,,,,,,,,,,,,,,,,,,,,,,,,202.71193961599784,202.71193961599784,202.71193961599784,202.71193961599784,202.71193961599784,202.71193961599784,202.71193961599784,202.71193961599784,202.71193961599784,202.71193961599784,a,0.8577849499997683,10,302,1,203.59641388899763,205.09792930899857,,,,,,,,,,,,,,,,,,,,,,,,,,,,,,,,,,,,,,,,,,,,,,,,,,,,,,,,,,,,,,,,,,,73676,2022-09-20_10h04.50.054,vts_reward_expectancy_OFFLINE,2022.2.4,59.940003293777984,
0,1,0,0,1,0,0,0,circle,triangle,1,0,1,0,1,2,14,3,,,,,,,,,,,,,,,,,,,,,,,,,,,,,,,,,,,,,,,,205.59847312299826,205.59847312299826,205.59847312299826,205.59847312299826,205.59847312299826,205.59847312299826,205.59847312299826,205.59847312299826,205.59847312299826,205.59847312299826,l,0.6683957310015103,10,312,1,206.2992552969954,207.8010878979985,,,,,,,,,,,,,,,,,,,,,,,,,,,,,,,,,,,,,,,,,,,,,,,,,,,,,,,,,,,,,,,,,,,73676,2022-09-20_10h04.50.054,vts_reward_expectancy_OFFLINE,2022.2.4,59.940003293777984,
1,0,0,0,0,0,0,1,triangle,star,1,0,1,0,1,3,15,2,,,,,,,,,,,,,,,,,,,,,,,,,,,,,,,,,,,,,,,,208.30149400200025,208.30149400200025,208.30149400200025,208.30149400200025,208.30149400200025,208.30149400200025,208.30149400200025,208.30149400200025,208.30149400200025,208.30149400200025,l,0.7816240120009752,1,313,1,209.10236231499584,210.60417925199727,,,,,,,,,,,,,,,,,,,,,,,,,,,,,,,,,,,,,,,,,,,,,,,,,,,,,,,,,,,,,,,,,,,73676,2022-09-20_10h04.50.054,vts_reward_expectancy_OFFLINE,2022.2.4,59.940003293777984,
1,0,0,0,0,1,0,0,triangle,circle,1,0,1,0,1,4,16,0,,,,,,,,,,,,,,,,,,,,,,,,,,,,,,,,,,,,,,,,211.10463421399618,211.10463421399618,211.10463421399618,211.10463421399618,211.10463421399618,211.10463421399618,211.10463421399618,211.10463421399618,211.10463421399618,211.10463421399618,a,0.45027714800380636,10,323,1,211.5717882329991,213.0734635839981,,,,,,,,,,,,,,,,,,,,,,,,,,,,,,,,,,,,,,,,,,,,,,,,,,,,,,,,,,,,,,,,,,,73676,2022-09-20_10h04.50.054,vts_reward_expectancy_OFFLINE,2022.2.4,59.940003293777984,
0,0,0,1,1,0,0,0,star,triangle,1,0,1,0,1,5,17,9,,,,,,,,,,,,,,,,,,,,,,,,,,,,,,,,,,,,,,,,213.57418528199923,213.57418528199923,213.57418528199923,213.57418528199923,213.57418528199923,213.57418528199923,213.57418528199923,213.57418528199923,213.57418528199923,213.57418528199923,l,1.2117611979992944,10,333,1,214.80868678399565,216.3103606959994,,,,,,,,,,,,,,,,,,,,,,,,,,,,,,,,,,,,,,,,,,,,,,,,,,,,,,,,,,,,,,,,,,,73676,2022-09-20_10h04.50.054,vts_reward_expectancy_OFFLINE,2022.2.4,59.940003293777984,
1,0,0,0,0,0,1,0,triangle,hexagon,1,0,1,0,1,6,18,1,,,,,,,,,,,,,,,,,,,,,,,,,,,,,,,,,,,,,,,,216.81082851699466,216.81082851699466,216.81082851699466,216.81082851699466,216.81082851699466,216.81082851699466,216.81082851699466,216.81082851699466,216.81082851699466,216.81082851699466,a,1.143059626003378,1,334,1,217.9788578939988,219.48053152999637,,,,,,,,,,,,,,,,,,,,,,,,,,,,,,,,,,,,,,,,,,,,,,,,,,,,,,,,,,,,,,,,,,,73676,2022-09-20_10h04.50.054,vts_reward_expectancy_OFFLINE,2022.2.4,59.940003293777984,
0,0,1,0,1,0,0,0,hexagon,triangle,1,0,1,0,1,7,19,6,,,,,,,,,,,,,,,,,,,,,,,,,,,,,,,,,,,,,,,,219.98115689199767,219.98115689199767,219.98115689199767,219.98115689199767,219.98115689199767,219.98115689199767,219.98115689199767,219.98115689199767,219.98115689199767,219.98115689199767,l,0.829084231008892,10,344,1,220.83199482700002,222.33379426999454,,,,,,,,,,,,,,,,,,,,,,,,,,,,,,,,,,,,,,,,,,,,,,,,,,,,,,,,,,,,,,,,,,,73676,2022-09-20_10h04.50.054,vts_reward_expectancy_OFFLINE,2022.2.4,59.940003293777984,
0,0,0,1,0,0,1,0,star,hexagon,1,0,1,0,1,8,20,11,,,,,,,,,,,,,,,,,,,,,,,,,,,,,,,,,,,,,,,,222.83424139099952,222.83424139099952,222.83424139099952,222.83424139099952,222.83424139099952,222.83424139099952,222.83424139099952,222.83424139099952,222.83424139099952,222.83424139099952,a,0.7520768440008396,1,345,1,223.6183480949985,225.12003841000114,,,,,,,,,,,,,,,,,,,,,,,,,,,,,,,,,,,,,,,,,,,,,,,,,,,,,,,,,,,,,,,,,,,73676,2022-09-20_10h04.50.054,vts_reward_expectancy_OFFLINE,2022.2.4,59.940003293777984,
0,1,0,0,0,0,1,0,circle,hexagon,1,0,1,0,1,9,21,4,,,,,,,,,,,,,,,,,,,,,,,,,,,,,,,,,,,,,,,,225.62077408899495,225.62077408899495,225.62077408899495,225.62077408899495,225.62077408899495,225.62077408899495,225.62077408899495,225.62077408899495,225.62077408899495,225.62077408899495,a,0.30191213600483024,1,346,1,225.9544677649974,227.4559300569963,,,,,,,,,,,,,,,,,,,,,,,,,,,,,,,,,,,,,,,,,,,,,,,,,,,,,,,,,,,,,,,,,,,73676,2022-09-20_10h04.50.054,vts_reward_expectancy_OFFLINE,2022.2.4,59.940003293777984,
0,0,0,1,0,1,0,0,star ,circle,1,0,1,0,1,10,22,10,,,,,,,,,,,,,,,,,,,,,,,,,,,,,,,,,,,,,,,,227.95655671900022,227.95655671900022,227.95655671900022,227.95655671900022,227.95655671900022,227.95655671900022,227.95655671900022,227.95655671900022,227.95655671900022,227.95655671900022,l,0.2063077710045036,10,356,1,228.19007749099546,229.69175343099778,,,,,,,,,,,,,,,,,,,,,,,,,,,,,,,,,,,,,,,,,,,,,,,,,,,,,,,,,,,,,,,,,,,73676,2022-09-20_10h04.50.054,vts_reward_expectancy_OFFLINE,2022.2.4,59.940003293777984,
0,0,1,0,0,1,0,0,hexagon,circle,1,0,1,0,1,11,23,7,,,,,,,,,,,,,,,,,,,,,,,,,,,,,,,,,,,,,,,,230.19240650899883,230.19240650899883,230.19240650899883,230.19240650899883,230.19240650899883,230.19240650899883,230.19240650899883,230.19240650899883,230.19240650899883,230.19240650899883,a,0.20153663900418906,10,366,1,230.4260550100007,231.92756054599886,,,,,,,,,,,,,,,,,,,,,,,,,,,,,,,,,,,,,,,,,,,,,,,,,,,,,,,,,,,,,,,,,,,73676,2022-09-20_10h04.50.054,vts_reward_expectancy_OFFLINE,2022.2.4,59.940003293777984,
0,0,0,1,0,0,1,0,star,hexagon,1,0,1,0,2,0,24,11,,,,,,,,,,,,,,,,,,,,,,,,,,,,,,,,,,,,,,,,232.428035111996,232.428035111996,232.428035111996,232.428035111996,232.428035111996,232.428035111996,232.428035111996,232.428035111996,232.428035111996,232.428035111996,a,0.15834265400189906,10,376,1,232.6117842140011,234.11328052399767,,,,,,,,,,,,,,,,,,,,,,,,,,,,,,,,,,,,,,,,,,,,,,,,,,,,,,,,,,,,,,,,,,,73676,2022-09-20_10h04.50.054,vts_reward_expectancy_OFFLINE,2022.2.4,59.940003293777984,
0,0,1,0,0,0,0,1,hexagon,star,1,0,1,0,2,1,25,8,,,,,,,,,,,,,,,,,,,,,,,,,,,,,,,,,,,,,,,,234.6139554649999,234.6139554649999,234.6139554649999,234.6139554649999,234.6139554649999,234.6139554649999,234.6139554649999,234.6139554649999,234.6139554649999,234.6139554649999,l,0.03569785300351214,1,377,1,234.68064507399686,236.18223537899758,,,,,,,,,,,,,,,,,,,,,,,,,,,,,,,,,,,,,,,,,,,,,,,,,,,,,,,,,,,,,,,,,,,73676,2022-09-20_10h04.50.054,vts_reward_expectancy_OFFLINE,2022.2.4,59.940003293777984,
0,1,0,0,1,0,0,0,circle,triangle,1,0,1,0,2,2,26,3,,,,,,,,,,,,,,,,,,,,,,,,,,,,,,,,,,,,,,,,236.68263883799955,236.68263883799955,236.68263883799955,236.68263883799955,236.68263883799955,236.68263883799955,236.68263883799955,236.68263883799955,236.68263883799955,236.68263883799955,a,0.07902642500266666,1,378,1,236.78277784300008,238.28437062399462,,,,,,,,,,,,,,,,,,,,,,,,,,,,,,,,,,,,,,,,,,,,,,,,,,,,,,,,,,,,,,,,,,,73676,2022-09-20_10h04.50.054,vts_reward_expectancy_OFFLINE,2022.2.4,59.940003293777984,
0,1,0,0,0,0,1,0,circle,hexagon,1,0,1,0,2,3,27,4,,,,,,,,,,,,,,,,,,,,,,,,,,,,,,,,,,,,,,,,238.78515894999873,238.78515894999873,238.78515894999873,238.78515894999873,238.78515894999873,238.78515894999873,238.78515894999873,238.78515894999873,238.78515894999873,238.78515894999873,a,0.03398030300013488,1,379,1,238.85142340099992,240.35358974299743,,,,,,,,,,,,,,,,,,,,,,,,,,,,,,,,,,,,,,,,,,,,,,,,,,,,,,,,,,,,,,,,,,,73676,2022-09-20_10h04.50.054,vts_reward_expectancy_OFFLINE,2022.2.4,59.940003293777984,
1,0,0,0,0,0,0,1,triangle,star,1,0,1,0,2,4,28,2,,,,,,,,,,,,,,,,,,,,,,,,,,,,,,,,,,,,,,,,240.8536422670004,240.8536422670004,240.8536422670004,240.8536422670004,240.8536422670004,240.8536422670004,240.8536422670004,240.8536422670004,240.8536422670004,240.8536422670004,a,0.1251793820047169,1,380,1,241.0042623240006,242.50593309100077,,,,,,,,,,,,,,,,,,,,,,,,,,,,,,,,,,,,,,,,,,,,,,,,,,,,,,,,,,,,,,,,,,,73676,2022-09-20_10h04.50.054,vts_reward_expectancy_OFFLINE,2022.2.4,59.940003293777984,
0,1,0,0,0,0,0,1,circle,star,1,0,1,0,2,5,29,5,,,,,,,,,,,,,,,,,,,,,,,,,,,,,,,,,,,,,,,,243.00652546199854,243.00652546199854,243.00652546199854,243.00652546199854,243.00652546199854,243.00652546199854,243.00652546199854,243.00652546199854,243.00652546199854,243.00652546199854,l,0.21213258100033272,10,390,1,243.24002294099773,244.74161265899602,,,,,,,,,,,,,,,,,,,,,,,,,,,,,,,,,,,,,,,,,,,,,,,,,,,,,,,,,,,,,,,,,,,73676,2022-09-20_10h04.50.054,vts_reward_expectancy_OFFLINE,2022.2.4,59.940003293777984,
1,0,0,0,0,1,0,0,triangle,circle,1,0,1,0,2,6,30,0,,,,,,,,,,,,,,,,,,,,,,,,,,,,,,,,,,,,,,,,245.24229014499724,245.24229014499724,245.24229014499724,245.24229014499724,245.24229014499724,245.24229014499724,245.24229014499724,245.24229014499724,245.24229014499724,245.24229014499724,a,0.1595976270036772,1,391,1,245.42586040799506,246.92745939399902,,,,,,,,,,,,,,,,,,,,,,,,,,,,,,,,,,,,,,,,,,,,,,,,,,,,,,,,,,,,,,,,,,,73676,2022-09-20_10h04.50.054,vts_reward_expectancy_OFFLINE,2022.2.4,59.940003293777984,
0,0,0,1,1,0,0,0,star,triangle,1,0,1,0,2,7,31,9,,,,,,,,,,,,,,,,,,,,,,,,,,,,,,,,,,,,,,,,247.42808945199795,247.42808945199795,247.42808945199795,247.42808945199795,247.42808945199795,247.42808945199795,247.42808945199795,247.42808945199795,247.42808945199795,247.42808945199795,a,0.06990834200405516,10,401,1,247.5282644789986,249.02967709199584,,,,,,,,,,,,,,,,,,,,,,,,,,,,,,,,,,,,,,,,,,,,,,,,,,,,,,,,,,,,,,,,,,,73676,2022-09-20_10h04.50.054,vts_reward_expectancy_OFFLINE,2022.2.4,59.940003293777984,
0,0,0,1,0,1,0,0,star ,circle,1,0,1,0,2,8,32,10,,,,,,,,,,,,,,,,,,,,,,,,,,,,,,,,,,,,,,,,249.5304575639966,249.5304575639966,249.5304575639966,249.5304575639966,249.5304575639966,249.5304575639966,249.5304575639966,249.5304575639966,249.5304575639966,249.5304575639966,l,0.032240185006230604,1,402,1,249.5803602140004,251.08219543299492,,,,,,,,,,,,,,,,,,,,,,,,,,,,,,,,,,,,,,,,,,,,,,,,,,,,,,,,,,,,,,,,,,,73676,2022-09-20_10h04.50.054,vts_reward_expectancy_OFFLINE,2022.2.4,59.940003293777984,
0,0,1,0,1,0,0,0,hexagon,triangle,1,0,1,0,2,9,33,6,,,,,,,,,,,,,,,,,,,,,,,,,,,,,,,,,,,,,,,,251.58257834400138,251.58257834400138,251.58257834400138,251.58257834400138,251.58257834400138,251.58257834400138,251.58257834400138,251.58257834400138,251.58257834400138,251.58257834400138,l,0.30001645800075494,1,403,1,251.89962589199422,253.4004429409979,,,,,,,,,,,,,,,,,,,,,,,,,,,,,,,,,,,,,,,,,,,,,,,,,,,,,,,,,,,,,,,,,,,73676,2022-09-20_10h04.50.054,vts_reward_expectancy_OFFLINE,2022.2.4,59.940003293777984,
0,0,1,0,0,1,0,0,hexagon,circle,1,0,1,0,2,10,34,7,,,,,,,,,,,,,,,,,,,,,,,,,,,,,,,,,,,,,,,,253.90204306699889,253.90204306699889,253.90204306699889,253.90204306699889,253.90204306699889,253.90204306699889,253.90204306699889,253.90204306699889,253.90204306699889,253.90204306699889,a,0.06061989500449272,10,413,1,253.985273278995,255.48693414699665,,,,,,,,,,,,,,,,,,,,,,,,,,,,,,,,,,,,,,,,,,,,,,,,,,,,,,,,,,,,,,,,,,,73676,2022-09-20_10h04.50.054,vts_reward_expectancy_OFFLINE,2022.2.4,59.940003293777984,
1,0,0,0,0,0,1,0,triangle,hexagon,1,0,1,0,2,11,35,1,,,,,,,,,,,,,,,,,,,,,,,,,,,,,,,,,,,,,,,,255.98733599099796,255.98733599099796,255.98733599099796,255.98733599099796,255.98733599099796,255.98733599099796,255.98733599099796,255.98733599099796,255.98733599099796,255.98733599099796,a,0.1428820139990421,1,414,1,256.15421964100096,257.6560023799975,,,,,,,,,,,,,,,,,,,,,,,,,,,,,,,,,,,,,,,,,,,,,,,,,,,,,,,,,,,,,,,,,,,73676,2022-09-20_10h04.50.054,vts_reward_expectancy_OFFLINE,2022.2.4,59.940003293777984,
0,1,0,0,1,0,0,0,circle,triangle,2,0,2,0,0,0,0,3,,,,,,,,,,,,,,,,,,,,,,,,,,,,,,,,,,,,,,,,261.01812369199615,261.01812369199615,261.01812369199615,261.01812369199615,261.01812369199615,261.01812369199615,261.01812369199615,261.01812369199615,261.01812369199615,261.01812369199615,l,0.6085268980023102,10,424,2,261.64372109100077,263.14534583399654,,,,,,,,,,,,,,,,,,,,,,,,,,,,,,,,,,,,,,,,,,,,,,,,,,,,,,,,,,,,,,,,,,,73676,2022-09-20_10h04.50.054,vts_reward_expectancy_OFFLINE,2022.2.4,59.940003293777984,
0,0,0,1,0,1,0,0,star ,circle,2,0,2,0,0,1,1,10,,,,,,,,,,,,,,,,,,,,,,,,,,,,,,,,,,,,,,,,263.6458993289998,263.6458993289998,263.6458993289998,263.6458993289998,263.6458993289998,263.6458993289998,263.6458993289998,263.6458993289998,263.6458993289998,263.6458993289998,a,0.09263903099781601,10,434,2,263.76274563199695,265.2642963699982,,,,,,,,,,,,,,,,,,,,,,,,,,,,,,,,,,,,,,,,,,,,,,,,,,,,,,,,,,,,,,,,,,,73676,2022-09-20_10h04.50.054,vts_reward_expectancy_OFFLINE,2022.2.4,59.940003293777984,
0,0,1,0,1,0,0,0,hexagon,triangle,2,0,2,0,0,2,2,6,,,,,,,,,,,,,,,,,,,,,,,,,,,,,,,,,,,,,,,,265.7650793499997,265.7650793499997,265.7650793499997,265.7650793499997,265.7650793499997,265.7650793499997,265.7650793499997,265.7650793499997,265.7650793499997,265.7650793499997,a,0.16588735199911753,10,444,2,265.9484746789967,267.45004101700033,,,,,,,,,,,,,,,,,,,,,,,,,,,,,,,,,,,,,,,,,,,,,,,,,,,,,,,,,,,,,,,,,,,73676,2022-09-20_10h04.50.054,vts_reward_expectancy_OFFLINE,2022.2.4,59.940003293777984,
0,1,0,0,0,0,0,1,circle,star,2,0,2,0,0,3,3,5,,,,,,,,,,,,,,,,,,,,,,,,,,,,,,,,,,,,,,,,267.95061144899955,267.95061144899955,267.95061144899955,267.95061144899955,267.95061144899955,267.95061144899955,267.95061144899955,267.95061144899955,267.95061144899955,267.95061144899955,a,0.0356160470037139,1,445,2,268.01745338099863,269.51895430999866,,,,,,,,,,,,,,,,,,,,,,,,,,,,,,,,,,,,,,,,,,,,,,,,,,,,,,,,,,,,,,,,,,,73676,2022-09-20_10h04.50.054,vts_reward_expectancy_OFFLINE,2022.2.4,59.940003293777984,
1,0,0,0,0,0,1,0,triangle,hexagon,2,0,2,0,0,4,4,1,,,,,,,,,,,,,,,,,,,,,,,,,,,,,,,,,,,,,,,,270.01957288999984,270.01957288999984,270.01957288999984,270.01957288999984,270.01957288999984,270.01957288999984,270.01957288999984,270.01957288999984,270.01957288999984,270.01957288999984,a,0.10223908100306289,1,446,2,270.1531697600003,271.6547604169973,,,,,,,,,,,,,,,,,,,,,,,,,,,,,,,,,,,,,,,,,,,,,,,,,,,,,,,,,,,,,,,,,,,73676,2022-09-20_10h04.50.054,vts_reward_expectancy_OFFLINE,2022.2.4,59.940003293777984,
0,0,0,1,0,0,1,0,star,hexagon,2,0,2,0,0,5,5,11,,,,,,,,,,,,,,,,,,,,,,,,,,,,,,,,,,,,,,,,272.1552469879971,272.1552469879971,272.1552469879971,272.1552469879971,272.1552469879971,272.1552469879971,272.1552469879971,272.1552469879971,272.1552469879971,272.1552469879971,a,0.06283079300192185,10,456,2,272.2388444199969,273.7403732879975,,,,,,,,,,,,,,,,,,,,,,,,,,,,,,,,,,,,,,,,,,,,,,,,,,,,,,,,,,,,,,,,,,,73676,2022-09-20_10h04.50.054,vts_reward_expectancy_OFFLINE,2022.2.4,59.940003293777984,
0,0,1,0,0,0,0,1,hexagon,star,2,0,2,0,0,6,6,8,,,,,,,,,,,,,,,,,,,,,,,,,,,,,,,,,,,,,,,,274.2408766209992,274.2408766209992,274.2408766209992,274.2408766209992,274.2408766209992,274.2408766209992,274.2408766209992,274.2408766209992,274.2408766209992,274.2408766209992,a,0.25002833399776137,10,466,2,274.5080260169998,276.0097032679987,,,,,,,,,,,,,,,,,,,,,,,,,,,,,,,,,,,,,,,,,,,,,,,,,,,,,,,,,,,,,,,,,,,73676,2022-09-20_10h04.50.054,vts_reward_expectancy_OFFLINE,2022.2.4,59.940003293777984,
0,0,0,1,1,0,0,0,star,triangle,2,0,2,0,0,7,7,9,,,,,,,,,,,,,,,,,,,,,,,,,,,,,,,,,,,,,,,,276.51007084199955,276.51007084199955,276.51007084199955,276.51007084199955,276.51007084199955,276.51007084199955,276.51007084199955,276.51007084199955,276.51007084199955,276.51007084199955,a,0.29282096700626425,10,476,2,276.8270695549945,278.32863157999964,,,,,,,,,,,,,,,,,,,,,,,,,,,,,,,,,,,,,,,,,,,,,,,,,,,,,,,,,,,,,,,,,,,73676,2022-09-20_10h04.50.054,vts_reward_expectancy_OFFLINE,2022.2.4,59.940003293777984,
1,0,0,0,0,1,0,0,triangle,circle,2,0,2,0,0,8,8,0,,,,,,,,,,,,,,,,,,,,,,,,,,,,,,,,,,,,,,,,278.82925033799984,278.82925033799984,278.82925033799984,278.82925033799984,278.82925033799984,278.82925033799984,278.82925033799984,278.82925033799984,278.82925033799984,278.82925033799984,l,0.23638405900419457,10,486,2,279.0963182599953,280.59789193499455,,,,,,,,,,,,,,,,,,,,,,,,,,,,,,,,,,,,,,,,,,,,,,,,,,,,,,,,,,,,,,,,,,,73676,2022-09-20_10h04.50.054,vts_reward_expectancy_OFFLINE,2022.2.4,59.940003293777984,
0,1,0,0,0,0,1,0,circle,hexagon,2,0,2,0,0,9,9,4,,,,,,,,,,,,,,,,,,,,,,,,,,,,,,,,,,,,,,,,281.09852330199647,281.09852330199647,281.09852330199647,281.09852330199647,281.09852330199647,281.09852330199647,281.09852330199647,281.09852330199647,281.09852330199647,281.09852330199647,a,0.31218844500835985,1,487,2,281.432279405999,282.93391898899426,,,,,,,,,,,,,,,,,,,,,,,,,,,,,,,,,,,,,,,,,,,,,,,,,,,,,,,,,,,,,,,,,,,73676,2022-09-20_10h04.50.054,vts_reward_expectancy_OFFLINE,2022.2.4,59.940003293777984,
1,0,0,0,0,0,0,1,triangle,star,2,0,2,0,0,10,10,2,,,,,,,,,,,,,,,,,,,,,,,,,,,,,,,,,,,,,,,,283.4344804909997,283.4344804909997,283.4344804909997,283.4344804909997,283.4344804909997,283.4344804909997,283.4344804909997,283.4344804909997,283.4344804909997,283.4344804909997,l,0.44029544300428824,10,497,2,283.9015841739965,285.40329742399626,,,,,,,,,,,,,,,,,,,,,,,,,,,,,,,,,,,,,,,,,,,,,,,,,,,,,,,,,,,,,,,,,,,73676,2022-09-20_10h04.50.054,vts_reward_expectancy_OFFLINE,2022.2.4,59.940003293777984,
0,0,1,0,0,1,0,0,hexagon,circle,2,0,2,0,0,11,11,7,,,,,,,,,,,,,,,,,,,,,,,,,,,,,,,,,,,,,,,,285.9037838369986,285.9037838369986,285.9037838369986,285.9037838369986,285.9037838369986,285.9037838369986,285.9037838369986,285.9037838369986,285.9037838369986,285.9037838369986,l,0.0179270990047371,1,498,2,285.95392070600064,287.45554954499676,,,,,,,,,,,,,,,,,,,,,,,,,,,,,,,,,,,,,,,,,,,,,,,,,,,,,,,,,,,,,,,,,,,73676,2022-09-20_10h04.50.054,vts_reward_expectancy_OFFLINE,2022.2.4,59.940003293777984,
0,0,1,0,0,1,0,0,hexagon,circle,2,0,2,0,1,0,12,7,,,,,,,,,,,,,,,,,,,,,,,,,,,,,,,,,,,,,,,,287.9560511189993,287.9560511189993,287.9560511189993,287.9560511189993,287.9560511189993,287.9560511189993,287.9560511189993,287.9560511189993,287.9560511189993,287.9560511189993,a,0.27042250700469594,10,508,2,288.25640326699795,289.7581385070007,,,,,,,,,,,,,,,,,,,,,,,,,,,,,,,,,,,,,,,,,,,,,,,,,,,,,,,,,,,,,,,,,,,73676,2022-09-20_10h04.50.054,vts_reward_expectancy_OFFLINE,2022.2.4,59.940003293777984,
0,1,0,0,1,0,0,0,circle,triangle,2,0,2,0,1,1,13,3,,,,,,,,,,,,,,,,,,,,,,,,,,,,,,,,,,,,,,,,290.25853362999624,290.25853362999624,290.25853362999624,290.25853362999624,290.25853362999624,290.25853362999624,290.25853362999624,290.25853362999624,290.25853362999624,290.25853362999624,l,0.20783368200500263,1,509,2,290.4921942619985,291.99387522199686,,,,,,,,,,,,,,,,,,,,,,,,,,,,,,,,,,,,,,,,,,,,,,,,,,,,,,,,,,,,,,,,,,,73676,2022-09-20_10h04.50.054,vts_reward_expectancy_OFFLINE,2022.2.4,59.940003293777984,
0,0,0,1,0,0,1,0,star,hexagon,2,0,2,0,1,2,14,11,,,,,,,,,,,,,,,,,,,,,,,,,,,,,,,,,,,,,,,,292.4944549389984,292.4944549389984,292.4944549389984,292.4944549389984,292.4944549389984,292.4944549389984,292.4944549389984,292.4944549389984,292.4944549389984,292.4944549389984,l,0.0357244639963028,10,519,2,292.5612487510007,294.0628312339977,,,,,,,,,,,,,,,,,,,,,,,,,,,,,,,,,,,,,,,,,,,,,,,,,,,,,,,,,,,,,,,,,,,73676,2022-09-20_10h04.50.054,vts_reward_expectancy_OFFLINE,2022.2.4,59.940003293777984,
0,1,0,0,0,0,1,0,circle,hexagon,2,0,2,0,1,3,15,4,,,,,,,,,,,,,,,,,,,,,,,,,,,,,,,,,,,,,,,,294.5633923169953,294.5633923169953,294.5633923169953,294.5633923169953,294.5633923169953,294.5633923169953,294.5633923169953,294.5633923169953,294.5633923169953,294.5633923169953,a,0.11054959399916697,1,520,2,294.69684900399443,296.198259924,,,,,,,,,,,,,,,,,,,,,,,,,,,,,,,,,,,,,,,,,,,,,,,,,,,,,,,,,,,,,,,,,,,73676,2022-09-20_10h04.50.054,vts_reward_expectancy_OFFLINE,2022.2.4,59.940003293777984,
0,0,0,1,1,0,0,0,star,triangle,2,0,2,0,1,4,16,9,,,,,,,,,,,,,,,,,,,,,,,,,,,,,,,,,,,,,,,,296.69881565399555,296.69881565399555,296.69881565399555,296.69881565399555,296.69881565399555,296.69881565399555,296.69881565399555,296.69881565399555,296.69881565399555,296.69881565399555,l,0.928280710002582,10,530,2,297.6541146890013,299.1515220209985,,,,,,,,,,,,,,,,,,,,,,,,,,,,,,,,,,,,,,,,,,,,,,,,,,,,,,,,,,,,,,,,,,,73676,2022-09-20_10h04.50.054,vts_reward_expectancy_OFFLINE,2022.2.4,59.940003293777984,
1,0,0,0,0,0,1,0,triangle,hexagon,2,0,2,0,1,5,17,1,,,,,,,,,,,,,,,,,,,,,,,,,,,,,,,,,,,,,,,,299.6520499170001,299.6520499170001,299.6520499170001,299.6520499170001,299.6520499170001,299.6520499170001,299.6520499170001,299.6520499170001,299.6520499170001,299.6520499170001,l,0.2782405879988801,10,540,2,299.95386914999835,301.4541832039977,,,,,,,,,,,,,,,,,,,,,,,,,,,,,,,,,,,,,,,,,,,,,,,,,,,,,,,,,,,,,,,,,,,73676,2022-09-20_10h04.50.054,vts_reward_expectancy_OFFLINE,2022.2.4,59.940003293777984,
1,0,0,0,0,1,0,0,triangle,circle,2,0,2,0,1,6,18,0,,,,,,,,,,,,,,,,,,,,,,,,,,,,,,,,,,,,,,,,301.9547680799951,301.9547680799951,301.9547680799951,301.9547680799951,301.9547680799951,301.9547680799951,301.9547680799951,301.9547680799951,301.9547680799951,301.9547680799951,l,0.2642569879972143,10,550,2,302.23947355999553,303.7400818929964,,,,,,,,,,,,,,,,,,,,,,,,,,,,,,,,,,,,,,,,,,,,,,,,,,,,,,,,,,,,,,,,,,,73676,2022-09-20_10h04.50.054,vts_reward_expectancy_OFFLINE,2022.2.4,59.940003293777984,
0,1,0,0,0,0,0,1,circle,star,2,0,2,0,1,7,19,5,,,,,,,,,,,,,,,,,,,,,,,,,,,,,,,,,,,,,,,,304.24071217099845,304.24071217099845,304.24071217099845,304.24071217099845,304.24071217099845,304.24071217099845,304.24071217099845,304.24071217099845,304.24071217099845,304.24071217099845,a,0.23379871000361163,1,551,2,304.4942112110002,305.9924789840006,,,,,,,,,,,,,,,,,,,,,,,,,,,,,,,,,,,,,,,,,,,,,,,,,,,,,,,,,,,,,,,,,,,73676,2022-09-20_10h04.50.054,vts_reward_expectancy_OFFLINE,2022.2.4,59.940003293777984,
0,0,0,1,0,1,0,0,star ,circle,2,0,2,0,1,8,20,10,,,,,,,,,,,,,,,,,,,,,,,,,,,,,,,,,,,,,,,,306.49301086599735,306.49301086599735,306.49301086599735,306.49301086599735,306.49301086599735,306.49301086599735,306.49301086599735,306.49301086599735,306.49301086599735,306.49301086599735,a,0.14067264800542034,1,552,2,306.65994450799917,308.161580248001,308.161580248001,308.66215534499497,,,,,,,,,,,,,,,,,,,,,,,,,,,,,,,,,,,,,,,,,,,,,,,,,,,,,,,,,,,,,,,,,73676,2022-09-20_10h04.50.054,vts_reward_expectancy_OFFLINE,2022.2.4,59.940003293777984,
0,0,1,0,1,0,0,0,hexagon,triangle,2,0,2,0,1,9,21,6,,,,,,,,,,,,,,,,,,,,,,,,,,,,,,,,,,,,,,,,308.66215534499497,308.66215534499497,308.66215534499497,308.66215534499497,308.66215534499497,308.66215534499497,308.66215534499497,308.66215534499497,308.66215534499497,308.66215534499497,a,0.24452907600061735,10,562,2,308.9295741609967,310.43066057599935,,,,,,,,,,,,,,,,,,,,,,,,,,,,,,,,,,,,,,,,,,,,,,,,,,,,,,,,,,,,,,,,,,,73676,2022-09-20_10h04.50.054,vts_reward_expectancy_OFFLINE,2022.2.4,59.940003293777984,
0,0,1,0,0,0,0,1,hexagon,star,2,0,2,0,1,10,22,8,,,,,,,,,,,,,,,,,,,,,,,,,,,,,,,,,,,,,,,,310.9312721289971,310.9312721289971,310.9312721289971,310.9312721289971,310.9312721289971,310.9312721289971,310.9312721289971,310.9312721289971,310.9312721289971,310.9312721289971,a,0.2322510760059231,10,572,2,311.1842541309961,312.6833463919975,,,,,,,,,,,,,,,,,,,,,,,,,,,,,,,,,,,,,,,,,,,,,,,,,,,,,,,,,,,,,,,,,,,73676,2022-09-20_10h04.50.054,vts_reward_expectancy_OFFLINE,2022.2.4,59.940003293777984,
1,0,0,0,0,0,0,1,triangle,star,2,0,2,0,1,11,23,2,,,,,,,,,,,,,,,,,,,,,,,,,,,,,,,,,,,,,,,,313.1838621269999,313.1838621269999,313.1838621269999,313.1838621269999,313.1838621269999,313.1838621269999,313.1838621269999,313.1838621269999,313.1838621269999,313.1838621269999,a,0.24292254600004526,10,582,2,313.450971156999,314.9525248159989,,,,,,,,,,,,,,,,,,,,,,,,,,,,,,,,,,,,,,,,,,,,,,,,,,,,,,,,,,,,,,,,,,,73676,2022-09-20_10h04.50.054,vts_reward_expectancy_OFFLINE,2022.2.4,59.940003293777984,
1,0,0,0,0,0,0,1,triangle,star,2,0,2,0,2,0,24,2,,,,,,,,,,,,,,,,,,,,,,,,,,,,,,,,,,,,,,,,315.45315698899503,315.45315698899503,315.45315698899503,315.45315698899503,315.45315698899503,315.45315698899503,315.45315698899503,315.45315698899503,315.45315698899503,315.45315698899503,a,0.24554220500431256,10,592,2,315.7201180289994,317.2215638790003,,,,,,,,,,,,,,,,,,,,,,,,,,,,,,,,,,,,,,,,,,,,,,,,,,,,,,,,,,,,,,,,,,,73676,2022-09-20_10h04.50.054,vts_reward_expectancy_OFFLINE,2022.2.4,59.940003293777984,
0,0,0,1,1,0,0,0,star,triangle,2,0,2,0,2,1,25,9,,,,,,,,,,,,,,,,,,,,,,,,,,,,,,,,,,,,,,,,317.72205025699805,317.72205025699805,317.72205025699805,317.72205025699805,317.72205025699805,317.72205025699805,317.72205025699805,317.72205025699805,317.72205025699805,317.72205025699805,l,0.21665700700395973,1,593,2,317.9561681619962,319.4572399530007,,,,,,,,,,,,,,,,,,,,,,,,,,,,,,,,,,,,,,,,,,,,,,,,,,,,,,,,,,,,,,,,,,,73676,2022-09-20_10h04.50.054,vts_reward_expectancy_OFFLINE,2022.2.4,59.940003293777984,
0,0,1,0,1,0,0,0,hexagon,triangle,2,0,2,0,2,2,26,6,,,,,,,,,,,,,,,,,,,,,,,,,,,,,,,,,,,,,,,,319.95785911099665,319.95785911099665,319.95785911099665,319.95785911099665,319.95785911099665,319.95785911099665,319.95785911099665,319.95785911099665,319.95785911099665,319.95785911099665,l,0.16516367399890441,1,594,2,320.14144203899923,321.64333403899946,,,,,,,,,,,,,,,,,,,,,,,,,,,,,,,,,,,,,,,,,,,,,,,,,,,,,,,,,,,,,,,,,,,73676,2022-09-20_10h04.50.054,vts_reward_expectancy_OFFLINE,2022.2.4,59.940003293777984,
0,1,0,0,0,0,0,1,circle,star,2,0,2,0,2,3,27,5,,,,,,,,,,,,,,,,,,,,,,,,,,,,,,,,,,,,,,,,322.14375561199995,322.14375561199995,322.14375561199995,322.14375561199995,322.14375561199995,322.14375561199995,322.14375561199995,322.14375561199995,322.14375561199995,322.14375561199995,a,0.3789403839982697,1,595,2,322.54525734899653,324.0460252549965,,,,,,,,,,,,,,,,,,,,,,,,,,,,,,,,,,,,,,,,,,,,,,,,,,,,,,,,,,,,,,,,,,,73676,2022-09-20_10h04.50.054,vts_reward_expectancy_OFFLINE,2022.2.4,59.940003293777984,
0,1,0,0,1,0,0,0,circle,triangle,2,0,2,0,2,4,28,3,,,,,,,,,,,,,,,,,,,,,,,,,,,,,,,,,,,,,,,,324.5463960039997,324.5463960039997,324.5463960039997,324.5463960039997,324.5463960039997,324.5463960039997,324.5463960039997,324.5463960039997,324.5463960039997,324.5463960039997,a,0.32834952200209955,1,596,2,324.8968337900005,326.39850858099817,,,,,,,,,,,,,,,,,,,,,,,,,,,,,,,,,,,,,,,,,,,,,,,,,,,,,,,,,,,,,,,,,,,73676,2022-09-20_10h04.50.054,vts_reward_expectancy_OFFLINE,2022.2.4,59.940003293777984,
0,1,0,0,0,0,1,0,circle,hexagon,2,0,2,0,2,5,29,4,,,,,,,,,,,,,,,,,,,,,,,,,,,,,,,,,,,,,,,,326.8990835739969,326.8990835739969,326.8990835739969,326.8990835739969,326.8990835739969,326.8990835739969,326.8990835739969,326.8990835739969,326.8990835739969,326.8990835739969,l,0.35886624900012976,10,606,2,327.28294937699684,328.7843951239993,,,,,,,,,,,,,,,,,,,,,,,,,,,,,,,,,,,,,,,,,,,,,,,,,,,,,,,,,,,,,,,,,,,73676,2022-09-20_10h04.50.054,vts_reward_expectancy_OFFLINE,2022.2.4,59.940003293777984,
0,0,0,1,0,0,1,0,star,hexagon,2,0,2,0,2,6,30,11,,,,,,,,,,,,,,,,,,,,,,,,,,,,,,,,,,,,,,,,329.28499680299865,329.28499680299865,329.28499680299865,329.28499680299865,329.28499680299865,329.28499680299865,329.28499680299865,329.28499680299865,329.28499680299865,329.28499680299865,l,0.2777699299986125,10,616,2,329.58720901899505,331.08681623099983,,,,,,,,,,,,,,,,,,,,,,,,,,,,,,,,,,,,,,,,,,,,,,,,,,,,,,,,,,,,,,,,,,,73676,2022-09-20_10h04.50.054,vts_reward_expectancy_OFFLINE,2022.2.4,59.940003293777984,
0,0,1,0,0,1,0,0,hexagon,circle,2,0,2,0,2,7,31,7,,,,,,,,,,,,,,,,,,,,,,,,,,,,,,,,,,,,,,,,331.5874844229984,331.5874844229984,331.5874844229984,331.5874844229984,331.5874844229984,331.5874844229984,331.5874844229984,331.5874844229984,331.5874844229984,331.5874844229984,l,0.3753110090037808,10,626,2,331.9880902169971,333.4896831869992,,,,,,,,,,,,,,,,,,,,,,,,,,,,,,,,,,,,,,,,,,,,,,,,,,,,,,,,,,,,,,,,,,,73676,2022-09-20_10h04.50.054,vts_reward_expectancy_OFFLINE,2022.2.4,59.940003293777984,
0,0,1,0,0,0,0,1,hexagon,star,2,0,2,0,2,8,32,8,,,,,,,,,,,,,,,,,,,,,,,,,,,,,,,,,,,,,,,,333.99016524399485,333.99016524399485,333.99016524399485,333.99016524399485,333.99016524399485,333.99016524399485,333.99016524399485,333.99016524399485,333.99016524399485,333.99016524399485,a,0.42791556900920114,1,627,2,334.4456943260011,335.94228782499704,,,,,,,,,,,,,,,,,,,,,,,,,,,,,,,,,,,,,,,,,,,,,,,,,,,,,,,,,,,,,,,,,,,73676,2022-09-20_10h04.50.054,vts_reward_expectancy_OFFLINE,2022.2.4,59.940003293777984,
0,0,0,1,0,1,0,0,star ,circle,2,0,2,0,2,9,33,10,,,,,,,,,,,,,,,,,,,,,,,,,,,,,,,,,,,,,,,,336.44275856799504,336.44275856799504,336.44275856799504,336.44275856799504,336.44275856799504,336.44275856799504,336.44275856799504,336.44275856799504,336.44275856799504,336.44275856799504,a,0.3199499050024315,1,628,2,336.7932039779989,338.2950378099995,,,,,,,,,,,,,,,,,,,,,,,,,,,,,,,,,,,,,,,,,,,,,,,,,,,,,,,,,,,,,,,,,,,73676,2022-09-20_10h04.50.054,vts_reward_expectancy_OFFLINE,2022.2.4,59.940003293777984,
1,0,0,0,0,0,1,0,triangle,hexagon,2,0,2,0,2,10,34,1,,,,,,,,,,,,,,,,,,,,,,,,,,,,,,,,,,,,,,,,338.79546691599535,338.79546691599535,338.79546691599535,338.79546691599535,338.79546691599535,338.79546691599535,338.79546691599535,338.79546691599535,338.79546691599535,338.79546691599535,l,0.31836204600404017,10,638,2,339.14599149100104,340.6474520019983,,,,,,,,,,,,,,,,,,,,,,,,,,,,,,,,,,,,,,,,,,,,,,,,,,,,,,,,,,,,,,,,,,,73676,2022-09-20_10h04.50.054,vts_reward_expectancy_OFFLINE,2022.2.4,59.940003293777984,
1,0,0,0,0,1,0,0,triangle,circle,2,0,2,0,2,11,35,0,,,,,,,,,,,,,,,,,,,,,,,,,,,,,,,,,,,,,,,,341.1480582259974,341.1480582259974,341.1480582259974,341.1480582259974,341.1480582259974,341.1480582259974,341.1480582259974,341.1480582259974,341.1480582259974,341.1480582259974,l,0.26341275900631445,1,639,2,341.4351506929961,342.9334974949961,,,,,,,,,,,,,,,,,,,,,,,,,,,,,,,,,,,,,,,,,,,,,,,,,,,,,,,,,,,,,,,,,,,73676,2022-09-20_10h04.50.054,vts_reward_expectancy_OFFLINE,2022.2.4,59.940003293777984,
,,,,,,,,,,,,,,,,,,0,0,0,0,0,0,0,0,,,,,,,,,,,,,,,,,,,,,,,,,,,,,,,,,,,,,,,,,,,,,,,,375.18546013399464,,,132,U,hexagon,0.0021076030025142245,370.96033777199773,372.46590530299727,372.46590530299727,372.46590530299727,1,0,d,1.2009083779994398,0,373.6863105800003,,,,,,,,,,,,,,,,,,,,,,,,,,,,,,,,,,,,,,,,,,,,,,,,,,,73676,2022-09-20_10h04.50.054,vts_reward_expectancy_OFFLINE,2022.2.4,59.940003293777984,
,,,,,,,,,,,,,,,,,,0,0,0,0,1,0,1,0,,,,,,,,,,,,,,,,,,,,,,,,,,,,,,,,,,,,,,,,,,,,,,,,380.4246825109949,,,181,S,triangle,0.001273545996809844,376.1648254620013,377.6717934069966,377.6717934069966,377.6717934069966,1,0,f,1.2264221770019503,0,378.92299457699846,,,,,,,,,,,,,,,,,,,,,,,,,,,,,,,,,,,,,,,,,,,,,,,,,,,73676,2022-09-20_10h04.50.054,vts_reward_expectancy_OFFLINE,2022.2.4,59.940003293777984,
,,,,,,,,,,,,,,,,,,0,0,0,0,2,0,2,0,,,,,,,,,,,,,,,,,,,,,,,,,,,,,,,,,,,,,,,,,,,,,,,,385.28004944200075,,,146,F,star,0.0016268289982690476,381.4675909419966,382.91067480199854,382.91067480199854,382.91067480199854,1,0,d,0.8436467510036891,0,383.77851396999904,,,,,,,,,,,,,,,,,,,,,,,,,,,,,,,,,,,,,,,,,,,,,,,,,,,73676,2022-09-20_10h04.50.054,vts_reward_expectancy_OFFLINE,2022.2.4,59.940003293777984,
,,,,,,,,,,,,,,,,,,0,0,0,0,3,0,3,0,,,,,,,,,,,,,,,,,,,,,,,,,,,,,,,,,,,,,,,,,,,,,,,,389.9852081950012,,,167,Y,circle,0.0013278000042191707,386.26052007499675,387.76621998799965,387.76621998799965,387.76621998799965,1,0,f,0.6922513399986201,0,388.4836546539955,,,,,,,,,,,,,,,,,,,,,,,,,,,,,,,,,,,,,,,,,,,,,,,,,,,73676,2022-09-20_10h04.50.054,vts_reward_expectancy_OFFLINE,2022.2.4,59.940003293777984,
,,,,,,,,,,,,,,,,,,0,0,0,0,4,0,4,0,,,,,,,,,,,,,,,,,,,,,,,,,,,,,,,,,,,,,,,,,,,,,,,,394.49013475600077,,,125,D,star,0.0017693059999146499,390.96512777499447,392.47116649399686,392.47116649399686,392.47116649399686,1,0,d,0.49971886799903587,0,392.988512058997,,,,,,,,,,,,,,,,,,,,,,,,,,,,,,,,,,,,,,,,,,,,,,,,,,,73676,2022-09-20_10h04.50.054,vts_reward_expectancy_OFFLINE,2022.2.4,59.940003293777984,
,,,,,,,,,,,,,,,,,,0,0,0,0,5,0,5,0,,,,,,,,,,,,,,,,,,,,,,,,,,,,,,,,,,,,,,,,,,,,,,,,399.0787647459947,,,139,H,triangle,0.001385791001666803,395.471849941001,396.97627370899863,396.97627370899863,396.97627370899863,1,0,d,0.5702610000007553,0,397.5769980479963,,,,,,,,,,,,,,,,,,,,,,,,,,,,,,,,,,,,,,,,,,,,,,,,,,,73676,2022-09-20_10h04.50.054,vts_reward_expectancy_OFFLINE,2022.2.4,59.940003293777984,
,,,,,,,,,,,,,,,,,,0,0,0,0,6,0,6,0,,,,,,,,,,,,,,,,,,,,,,,,,,,,,,,,,,,,,,,,,,,,,,,,403.5837370559966,,,160,W,hexagon,0.001619733993720729,400.05838643400057,401.56467568600056,401.56467568600056,401.56467568600056,0,0,d,0.4850351999994018,0,402.08207710799616,,,,,,,,,,,,,,,,,,,,,,,,,,,,,,,,,,,,,,,,,,,,,,,,,,,73676,2022-09-20_10h04.50.054,vts_reward_expectancy_OFFLINE,2022.2.4,59.940003293777984,
,,,,,,,,,,,,,,,,,,0,0,0,0,7,0,7,0,,,,,,,,,,,,,,,,,,,,,,,,,,,,,,,,,,,,,,,,,,,,,,,,408.1721210179967,,,174,B,circle,0.0013865919972886331,404.5635900519992,406.06973629599815,406.06973629599815,406.06973629599815,1,1,f,0.580520471005002,0,406.67071244399995,,,,,,,,,,,,,,,,,,,,,,,,,,,,,,,,,,,,,,,,,,,,,,,,,,,73676,2022-09-20_10h04.50.054,vts_reward_expectancy_OFFLINE,2022.2.4,59.940003293777984,
,,,,,,,,,,,,,,,,,,0,0,0,0,8,0,8,0,,,,,,,,,,,,,,,,,,,,,,,,,,,,,,,,,,,,,,,,,,,,,,,,412.7271135560004,,,132,U,star,0.0017301049956586212,409.1514288399994,410.6580549509963,410.6580549509963,410.6580549509963,1,0,d,0.5362924479995854,0,411.22535384499497,,,,,,,,,,,,,,,,,,,,,,,,,,,,,,,,,,,,,,,,,,,,,,,,,,,73676,2022-09-20_10h04.50.054,vts_reward_expectancy_OFFLINE,2022.2.4,59.940003293777984,
,,,,,,,,,,,,,,,,,,0,0,0,0,9,0,9,0,,,,,,,,,,,,,,,,,,,,,,,,,,,,,,,,,,,,,,,,,,,,,,,,417.4322260339977,,,181,S,triangle,0.0017025870038196445,413.7050144620007,415.2131196979972,415.2131196979972,415.2131196979972,1,0,f,0.693578215999878,0,415.93059707199427,,,,,,,,,,,,,,,,,,,,,,,,,,,,,,,,,,,,,,,,,,,,,,,,,,,73676,2022-09-20_10h04.50.054,vts_reward_expectancy_OFFLINE,2022.2.4,59.940003293777984,
,,,,,,,,,,,,,,,,,,,,,,,,,,0,0,0,0,0,0,0,0,,,,,,,,,,,,,,,,,,,,,,,,,,,,,,,,,,,,,,,,435.5223749049983,,,167,B,star,0.0020373950028442778,,,,,1,0,,,1,434.01718085500033,431.26056266099476,432.7658319819966,432.7658319819966,432.7658319819966,j,1.2204641140051535,,,,,,,,,,,,,,,,,,,,,,,,,,,,,,,,,,,,,,,,,,,,,73676,2022-09-20_10h04.50.054,vts_reward_expectancy_OFFLINE,2022.2.4,59.940003293777984,
,,,,,,,,,,,,,,,,,,,,,,,,,,0,0,0,0,1,0,1,0,,,,,,,,,,,,,,,,,,,,,,,,,,,,,,,,,,,,,,,,440.3575808969981,,,160,W,triangle,0.0012562530027935281,,,,,1,0,,,1,438.8558044599995,436.4974991759955,438.0049243589965,438.0049243589965,438.0049243589965,k,0.8216023390050395,,,,,,,,,,,,,,,,,,,,,,,,,,,,,,,,,,,,,,,,,,,,,73676,2022-09-20_10h04.50.054,vts_reward_expectancy_OFFLINE,2022.2.4,59.940003293777984,
,,,,,,,,,,,,,,,,,,,,,,,,,,0,0,0,0,2,0,2,0,,,,,,,,,,,,,,,,,,,,,,,,,,,,,,,,,,,,,,,,445.24616724299995,,,125,D,hexagon,0.0017400420038029552,,,,,1,0,,,1,443.7446325540004,441.3374671199999,442.84351042199705,442.84351042199705,442.84351042199705,j,0.8787295049987733,,,,,,,,,,,,,,,,,,,,,,,,,,,,,,,,,,,,,,,,,,,,,73676,2022-09-20_10h04.50.054,vts_reward_expectancy_OFFLINE,2022.2.4,59.940003293777984,
,,,,,,,,,,,,,,,,,,,,,,,,,,0,0,0,0,3,0,3,0,,,,,,,,,,,,,,,,,,,,,,,,,,,,,,,,,,,,,,,,450.8689139929993,,,174,F,circle,0.001300989999435842,,,,,1,0,,,1,449.3673123949993,446.2248547509953,447.73224392200063,447.73224392200063,447.73224392200063,j,1.6142627540029935,,,,,,,,,,,,,,,,,,,,,,,,,,,,,,,,,,,,,,,,,,,,,73676,2022-09-20_10h04.50.054,vts_reward_expectancy_OFFLINE,2022.2.4,59.940003293777984,
,,,,,,,,,,,,,,,,,,,,,,,,,,0,0,0,0,4,0,4,0,,,,,,,,,,,,,,,,,,,,,,,,,,,,,,,,,,,,,,,,455.55769167799735,,,139,Y,star,0.001652039005421102,,,,,1,0,,,1,454.0560507709961,451.8479444459954,453.3550915109954,453.3550915109954,453.3550915109954,k,0.6788293460049317,,,,,,,,,,,,,,,,,,,,,,,,,,,,,,,,,,,,,,,,,,,,,73676,2022-09-20_10h04.50.054,vts_reward_expectancy_OFFLINE,2022.2.4,59.940003293777984,
,,,,,,,,,,,,,,,,,,,,,,,,,,0,0,0,0,5,0,5,0,,,,,,,,,,,,,,,,,,,,,,,,,,,,,,,,,,,,,,,,460.57962191199476,,,181,S,circle,0.0016099940039566718,,,,,1,0,,,1,459.07822575899627,456.53863676599576,458.043505226,458.043505226,458.043505226,k,1.0074471650004853,,,,,,,,,,,,,,,,,,,,,,,,,,,,,,,,,,,,,,,,,,,,,73676,2022-09-20_10h04.50.054,vts_reward_expectancy_OFFLINE,2022.2.4,59.940003293777984,
,,,,,,,,,,,,,,,,,,,,,,,,,,0,0,0,0,6,0,6,0,,,,,,,,,,,,,,,,,,,,,,,,,,,,,,,,,,,,,,,,465.38507471599587,,,146,H,hexagon,0.0016140799998538569,,,,,1,0,,,1,463.88346780299617,461.561047571995,463.06577330999426,463.06577330999426,463.06577330999426,j,0.7922838509985013,,,,,,,,,,,,,,,,,,,,,,,,,,,,,,,,,,,,,,,,,,,,,73676,2022-09-20_10h04.50.054,vts_reward_expectancy_OFFLINE,2022.2.4,59.940003293777984,
,,,,,,,,,,,,,,,,,,,,,,,,,,0,0,0,0,7,0,7,0,,,,,,,,,,,,,,,,,,,,,,,,,,,,,,,,,,,,,,,,470.15704735399777,,,132,U,triangle,0.001604803001100663,,,,,1,0,,,1,468.65537058399786,466.36283054399973,467.8712006450005,467.8712006450005,467.8712006450005,k,0.755745463000494,,,,,,,,,,,,,,,,,,,,,,,,,,,,,,,,,,,,,,,,,,,,,73676,2022-09-20_10h04.50.054,vts_reward_expectancy_OFFLINE,2022.2.4,59.940003293777984,
,,,,,,,,,,,,,,,,,,,,,,,,,,0,0,0,0,8,0,8,0,,,,,,,,,,,,,,,,,,,,,,,,,,,,,,,,,,,,,,,,474.97893434100115,,,167,B,circle,0.001396798004861921,,,,,1,0,,,1,473.47731192499486,471.13437857900135,472.6429173590004,472.6429173590004,472.6429173590004,j,0.8160527010040823,,,,,,,,,,,,,,,,,,,,,,,,,,,,,,,,,,,,,,,,,,,,,73676,2022-09-20_10h04.50.054,vts_reward_expectancy_OFFLINE,2022.2.4,59.940003293777984,
,,,,,,,,,,,,,,,,,,,,,,,,,,0,0,0,0,9,0,9,0,,,,,,,,,,,,,,,,,,,,,,,,,,,,,,,,,,,,,,,,479.5507316389994,,,160,W,triangle,0.0011298519966658205,,,,,1,0,,,1,478.0491997739955,475.95842589799577,477.4651565519962,477.4651565519962,477.4651565519962,k,0.5530788000032771,,,,,,,,,,,,,,,,,,,,,,,,,,,,,,,,,,,,,,,,,,,,,73676,2022-09-20_10h04.50.054,vts_reward_expectancy_OFFLINE,2022.2.4,59.940003293777984,
,,,,,,,,,,,,,,,,,,,,,,,,,,,,,,,,,,0,0,0,0,0,0,0,0,,,,,,,,,,,,,,,,,,,,,,,,,,,,0,639,,,512.4870308870013,,,139,B,hexagon,0.0022002990008331835,,,,,1,0,,,2,,,,,,,,507.2455267529949,507.2455267529949,507.2455267529949,507.2455267529949,508.7495652680009,508.7495652680009,508.7495652680009,508.7495652680009,508.7495652680009,508.7495652680009,508.7495652680009,508.7495652680009,-1,number,NA,d,2.2130223890053458,vtsPrac,510.9872554760004,,,,,,,,,,,,,,,,,,,,,,,,,,73676,2022-09-20_10h04.50.054,vts_reward_expectancy_OFFLINE,2022.2.4,59.940003293777984,
,,,,,,,,,,,,,,,,,,,,,,,,,,,,,,,,,,0,0,0,0,1,0,1,0,,,,,,,,,,,,,,,,,,,,,,,,,,,,0,639,,,518.5103901879993,,,146,S,circle,0.0014947180025046691,,,,,1,0,,,2,,,,,,,,513.4701377489982,513.4701377489982,513.4701377489982,513.4701377489982,514.9731438689996,514.9731438689996,514.9731438689996,514.9731438689996,514.9731438689996,514.9731438689996,514.9731438689996,514.9731438689996,switch,letter,lettSwt,k,2.0130300460077706,vtsPrac,517.0087953089969,,,,,,,,,,,,,,,,,,,,,,,,,,73676,2022-09-20_10h04.50.054,vts_reward_expectancy_OFFLINE,2022.2.4,59.940003293777984,
,,,,,,,,,,,,,,,,,,,,,,,,,,,,,,,,,,0,0,0,0,2,0,2,0,,,,,,,,,,,,,,,,,,,,,,,,,,,,0,639,,,523.3322148079969,,,132,Y,hexagon,0.001605530000233557,,,,,1,0,,,2,,,,,,,,519.4917057489947,519.4917057489947,519.4917057489947,519.4917057489947,520.9963474830001,520.9963474830001,520.9963474830001,520.9963474830001,520.9963474830001,520.9963474830001,520.9963474830001,520.9963474830001,switch,number,numSwt,d,0.8137946020069649,vtsPrac,521.8307139850003,,,,,,,,,,,,,,,,,,,,,,,,,,73676,2022-09-20_10h04.50.054,vts_reward_expectancy_OFFLINE,2022.2.4,59.940003293777984,
,,,,,,,,,,,,,,,,,,,,,,,,,,,,,,,,,,0,0,0,0,3,0,3,0,,,,,,,,,,,,,,,,,,,,,,,,,,,,0,639,,,528.3879644659974,,,125,W,star,0.0017693720001261681,,,,,1,0,,,2,,,,,,,,524.3122904099946,524.3122904099946,524.3122904099946,524.3122904099946,525.8183503499968,525.8183503499968,525.8183503499968,525.8183503499968,525.8183503499968,525.8183503499968,525.8183503499968,525.8183503499968,switch,letter,lettSwt,k,1.0409379820048343,vtsPrac,526.8864945050009,,,,,,,,,,,,,,,,,,,,,,,,,,73676,2022-09-20_10h04.50.054,vts_reward_expectancy_OFFLINE,2022.2.4,59.940003293777984,
,,,,,,,,,,,,,,,,,,,,,,,,,,,,,,,,,,0,0,0,0,4,0,4,0,,,,,,,,,,,,,,,,,,,,,,,,,,,,0,639,,,533.6269860539978,,,139,B,hexagon,0.0014536779999616556,,,,,1,0,,,2,,,,,,,,529.3690667669944,529.3690667669944,529.3690667669944,529.3690667669944,530.8739713179966,530.8739713179966,530.8739713179966,530.8739713179966,530.8739713179966,530.8739713179966,530.8739713179966,530.8739713179966,repeat,letter,lettRpt,j,1.2249502140039112,vtsPrac,532.1253590489941,,,,,,,,,,,,,,,,,,,,,,,,,,73676,2022-09-20_10h04.50.054,vts_reward_expectancy_OFFLINE,2022.2.4,59.940003293777984,
,,,,,,,,,,,,,,,,,,,,,,,,,,,,,,,,,,0,0,0,0,5,0,5,0,,,,,,,,,,,,,,,,,,,,,,,,,,,,0,639,,,538.4824120060002,,,146,S,star,0.0014355660023284145,,,,,1,0,,,2,,,,,,,,534.6059211809988,534.6059211809988,534.6059211809988,534.6059211809988,536.1130265589964,536.1130265589964,536.1130265589964,536.1130265589964,536.1130265589964,536.1130265589964,536.1130265589964,536.1130265589964,repeat,letter,lettRpt,k,0.8500208129989915,vtsPrac,536.9808355319983,,,,,,,,,,,,,,,,,,,,,,,,,,73676,2022-09-20_10h04.50.054,vts_reward_expectancy_OFFLINE,2022.2.4,59.940003293777984,
,,,,,,,,,,,,,,,,,,,,,,,,,,,,,,,,,,0,0,0,0,6,0,6,0,,,,,,,,,,,,,,,,,,,,,,,,,,,,0,639,,,543.3543530409952,,,132,Y,triangle,0.001358078996418044,,,,,1,0,,,2,,,,,,,,539.4634557449972,539.4634557449972,539.4634557449972,539.4634557449972,540.9685548310008,540.9685548310008,540.9685548310008,540.9685548310008,540.9685548310008,540.9685548310008,540.9685548310008,540.9685548310008,repeat,letter,lettRpt,k,0.8576789610015112,vtsPrac,541.852710358995,,,,,,,,,,,,,,,,,,,,,,,,,,73676,2022-09-20_10h04.50.054,vts_reward_expectancy_OFFLINE,2022.2.4,59.940003293777984,
,,,,,,,,,,,,,,,,,,,,,,,,,,,,,,,,,,0,0,0,0,7,0,7,0,,,,,,,,,,,,,,,,,,,,,,,,,,,,0,639,,,548.2767126799954,,,125,W,hexagon,0.0015984090059646405,,,,,1,0,,,2,,,,,,,,544.3325225160006,544.3325225160006,544.3325225160006,544.3325225160006,545.8403671560009,545.8403671560009,545.8403671560009,545.8403671560009,545.8403671560009,545.8403671560009,545.8403671560009,545.8403671560009,repeat,letter,lettRpt,k,0.9134199070031173,vtsPrac,546.7751749359959,,,,,,,,,,,,,,,,,,,,,,,,,,73676,2022-09-20_10h04.50.054,vts_reward_expectancy_OFFLINE,2022.2.4,59.940003293777984,
,,,,,,,,,,,,,,,,,,,,,,,,,,,,,,,,,,0,0,0,0,8,0,8,0,,,,,,,,,,,,,,,,,,,,,,,,,,,,0,639,,,553.0819303989992,,,181,F,hexagon,0.0016136260019266047,,,,,1,0,,,2,,,,,,,,549.2589800040005,549.2589800040005,549.2589800040005,549.2589800040005,550.7626228820009,550.7626228820009,550.7626228820009,550.7626228820009,550.7626228820009,550.7626228820009,550.7626228820009,550.7626228820009,repeat,letter,lettRpt,j,0.800578171001689,vtsPrac,551.5801239930006,,,,,,,,,,,,,,,,,,,,,,,,,,73676,2022-09-20_10h04.50.054,vts_reward_expectancy_OFFLINE,2022.2.4,59.940003293777984,
,,,,,,,,,,,,,,,,,,,,,,,,,,,,,,,,,,0,0,0,0,9,0,9,0,,,,,,,,,,,,,,,,,,,,,,,,,,,,0,639,,,557.8538173449997,,,167,D,star,0.0015528860021731816,,,,,1,0,,,2,,,,,,,,554.0644238329987,554.0644238329987,554.0644238329987,554.0644238329987,555.5679462789994,555.5679462789994,555.5679462789994,555.5679462789994,555.5679462789994,555.5679462789994,555.5679462789994,555.5679462789994,repeat,letter,lettRpt,j,0.762409197006491,vtsPrac,556.3521393339979,,,,,,,,,,,,,,,,,,,,,,,,,,73676,2022-09-20_10h04.50.054,vts_reward_expectancy_OFFLINE,2022.2.4,59.940003293777984,
,,,,,,,,,,,,,,,,,,,,,,,,,,,,,,,,,,0,0,0,0,10,0,10,0,,,,,,,,,,,,,,,,,,,,,,,,,,,,0,639,,,562.5923565560006,,,160,S,circle,0.0015043120001791976,,,,,1,0,,,2,,,,,,,,558.8327711769962,558.8327711769962,558.8327711769962,558.8327711769962,560.3397881829951,560.3397881829951,560.3397881829951,560.3397881829951,560.3397881829951,560.3397881829951,560.3397881829951,560.3397881829951,repeat,letter,lettRpt,k,0.7182838810040266,vtsPrac,561.0905384619982,,,,,,,,,,,,,,,,,,,,,,,,,,73676,2022-09-20_10h04.50.054,vts_reward_expectancy_OFFLINE,2022.2.4,59.940003293777984,
,,,,,,,,,,,,,,,,,,,,,,,,,,,,,,,,,,0,0,0,0,11,0,11,0,,,,,,,,,,,,,,,,,,,,,,,,,,,,0,639,,,567.2473961799988,,,125,H,hexagon,0.0016038350004237145,,,,,1,0,,,2,,,,,,,,563.5719295480012,563.5719295480012,563.5719295480012,563.5719295480012,565.0785251579946,565.0785251579946,565.0785251579946,565.0785251579946,565.0785251579946,565.0785251579946,565.0785251579946,565.0785251579946,repeat,letter,lettRpt,j,0.6438565700009349,vtsPrac,565.7460136730006,,,,,,,,,,,,,,,,,,,,,,,,,,73676,2022-09-20_10h04.50.054,vts_reward_expectancy_OFFLINE,2022.2.4,59.940003293777984,
,,,,,,,,,,,,,,,,,,,,,,,,,,,,,,,,,,0,0,0,0,12,0,12,0,,,,,,,,,,,,,,,,,,,,,,,,,,,,0,639,,,572.1692229659966,,,125,H,star,0.0014920619942131452,,,,,1,0,,,2,,,,,,,,568.2257222219996,568.2257222219996,568.2257222219996,568.2257222219996,569.7333579309998,569.7333579309998,569.7333579309998,569.7333579309998,569.7333579309998,569.7333579309998,569.7333579309998,569.7333579309998,repeat,letter,lettRpt,j,0.9085570630049915,vtsPrac,570.6677820769983,,,,,,,,,,,,,,,,,,,,,,,,,,73676,2022-09-20_10h04.50.054,vts_reward_expectancy_OFFLINE,2022.2.4,59.940003293777984,
,,,,,,,,,,,,,,,,,,,,,,,,,,,,,,,,,,0,0,0,0,13,0,13,0,,,,,,,,,,,,,,,,,,,,,,,,,,,,0,639,,,577.3250633579955,,,160,F,hexagon,0.0011088770042988472,,,,,1,0,,,2,,,,,,,,573.1486886149942,573.1486886149942,573.1486886149942,573.1486886149942,574.6553249579956,574.6553249579956,574.6553249579956,574.6553249579956,574.6553249579956,574.6553249579956,574.6553249579956,574.6553249579956,repeat,letter,lettRpt,j,1.147408273005567,vtsPrac,575.8233463590004,,,,,,,,,,,,,,,,,,,,,,,,,,73676,2022-09-20_10h04.50.054,vts_reward_expectancy_OFFLINE,2022.2.4,59.940003293777984,
,,,,,,,,,,,,,,,,,,,,,,,,,,,,,,,,,,0,0,0,0,14,0,14,0,,,,,,,,,,,,,,,,,,,,,,,,,,,,0,639,,,582.080320052999,,,167,Y,star,0.0017135540037997998,,,,,1,0,,,2,,,,,,,,578.3050550769985,578.3050550769985,578.3050550769985,578.3050550769985,579.811069905998,579.811069905998,579.811069905998,579.811069905998,579.811069905998,579.811069905998,579.811069905998,579.811069905998,repeat,letter,lettRpt,k,0.7428932620023261,vtsPrac,580.5785393279948,,,,,,,,,,,,,,,,,,,,,,,,,,73676,2022-09-20_10h04.50.054,vts_reward_expectancy_OFFLINE,2022.2.4,59.940003293777984,
,,,,,,,,,,,,,,,,,,,,,,,,,,,,,,,,,,0,0,0,0,15,0,15,0,,,,,,,,,,,,,,,,,,,,,,,,,,,,0,639,,,587.0024624709986,,,132,S,circle,0.0015260360014508478,,,,,1,0,,,2,,,,,,,,583.0600862439969,583.0600862439969,583.0600862439969,583.0600862439969,584.5663568050004,584.5663568050004,584.5663568050004,584.5663568050004,584.5663568050004,584.5663568050004,584.5663568050004,584.5663568050004,repeat,letter,lettRpt,k,0.9165034140023636,vtsPrac,585.5007897760006,,,,,,,,,,,,,,,,,,,,,,,,,,73676,2022-09-20_10h04.50.054,vts_reward_expectancy_OFFLINE,2022.2.4,59.940003293777984,
,,,,,,,,,,,,,,,,,,,,,,,,,,,,,,,,,,1,0,1,0,0,0,0,0,,,,,,,,,,,,,,,,,,,,,,,,,,,,0,639,,,652.2244486249983,,,146,U,circle,0.002256824998767115,,,,,1,0,,,3,,,,,,,,647.9833753899948,647.9833753899948,647.9833753899948,647.9833753899948,649.4879820719943,649.4879820719943,649.4879820719943,649.4879820719943,649.4879820719943,649.4879820719943,649.4879820719943,649.4879820719943,switch,number,numSwt,d,1.2110089310008334,vtsPrac,650.7227692289962,,,,,,,,,,,,,,,,,,,,,,,,,,73676,2022-09-20_10h04.50.054,vts_reward_expectancy_OFFLINE,2022.2.4,59.940003293777984,
,,,,,,,,,,,,,,,,,,,,,,,,,,,,,,,,,,1,0,1,0,1,0,1,0,,,,,,,,,,,,,,,,,,,,,,,,,,,,0,639,,,657.1632586959968,,,139,B,triangle,0.0016828929947223514,,,,,1,0,,,3,,,,,,,,653.2057564520001,653.2057564520001,653.2057564520001,653.2057564520001,654.7105993579971,654.7105993579971,654.7105993579971,654.7105993579971,654.7105993579971,654.7105993579971,654.7105993579971,654.7105993579971,repeat,number,numRpt,d,0.9330498020062805,vtsPrac,655.6616037989952,,,,,,,,,,,,,,,,,,,,,,,,,,73676,2022-09-20_10h04.50.054,vts_reward_expectancy_OFFLINE,2022.2.4,59.940003293777984,
,,,,,,,,,,,,,,,,,,,,,,,,,,,,,,,,,,1,0,1,0,2,0,2,0,,,,,,,,,,,,,,,,,,,,,,,,,,,,0,639,,,663.0865464669987,,,132,S,star,0.0013269650007714517,,,,,1,0,,,3,,,,,,,,658.1432259339999,658.1432259339999,658.1432259339999,658.1432259339999,659.6493356840001,659.6493356840001,659.6493356840001,659.6493356840001,659.6493356840001,659.6493356840001,659.6493356840001,659.6493356840001,repeat,number,numRpt,d,1.9049337890028255,vtsPrac,661.5849469629975,,,,,,,,,,,,,,,,,,,,,,,,,,73676,2022-09-20_10h04.50.054,vts_reward_expectancy_OFFLINE,2022.2.4,59.940003293777984,
,,,,,,,,,,,,,,,,,,,,,,,,,,,,,,,,,,1,0,1,0,3,0,3,0,,,,,,,,,,,,,,,,,,,,,,,,,,,,0,639,,,667.8916327979969,,,160,D,triangle,0.0017179970018332824,,,,,1,0,,,3,,,,,,,,664.0674145999947,664.0674145999947,664.0674145999947,664.0674145999947,665.5724879199988,665.5724879199988,665.5724879199988,665.5724879199988,665.5724879199988,665.5724879199988,665.5724879199988,665.5724879199988,switch,letter,lettSwt,j,0.7984261439996772,vtsPrac,666.3899949389961,,,,,,,,,,,,,,,,,,,,,,,,,,73676,2022-09-20_10h04.50.054,vts_reward_expectancy_OFFLINE,2022.2.4,59.940003293777984,
,,,,,,,,,,,,,,,,,,,,,,,,,,,,,,,,,,1,0,1,0,4,0,4,0,,,,,,,,,,,,,,,,,,,,,,,,,,,,0,639,,,672.6471264249994,,,146,U,hexagon,0.0014879250011290424,,,,,1,0,,,3,,,,,,,,668.870837841001,668.870837841001,668.870837841001,668.870837841001,670.3778380599979,670.3778380599979,670.3778380599979,670.3778380599979,670.3778380599979,670.3778380599979,670.3778380599979,670.3778380599979,repeat,letter,lettRpt,k,0.7445318320023944,vtsPrac,671.1453795650013,,,,,,,,,,,,,,,,,,,,,,,,,,73676,2022-09-20_10h04.50.054,vts_reward_expectancy_OFFLINE,2022.2.4,59.940003293777984,
,,,,,,,,,,,,,,,,,,,,,,,,,,,,,,,,,,1,0,1,0,5,0,5,0,,,,,,,,,,,,,,,,,,,,,,,,,,,,0,639,,,677.3355768670008,,,139,B,circle,0.001899367998703383,,,,,1,0,,,3,,,,,,,,673.626175542995,673.626175542995,673.626175542995,673.626175542995,675.1330685479988,675.1330685479988,675.1330685479988,675.1330685479988,675.1330685479988,675.1330685479988,675.1330685479988,675.1330685479988,repeat,letter,lettRpt,j,0.6687490600015735,vtsPrac,675.8338497469958,,,,,,,,,,,,,,,,,,,,,,,,,,73676,2022-09-20_10h04.50.054,vts_reward_expectancy_OFFLINE,2022.2.4,59.940003293777984,
,,,,,,,,,,,,,,,,,,,,,,,,,,,,,,,,,,1,0,1,0,6,0,6,0,,,,,,,,,,,,,,,,,,,,,,,,,,,,0,639,,,682.2910482429943,,,132,S,circle,0.0014875810011290014,,,,,1,0,,,3,,,,,,,,678.3167242729978,678.3167242729978,678.3167242729978,678.3167242729978,679.8217938140006,679.8217938140006,679.8217938140006,679.8217938140006,679.8217938140006,679.8217938140006,679.8217938140006,679.8217938140006,switch,number,numSwt,d,0.9409816010011127,vtsPrac,680.7893226119995,,,,,,,,,,,,,,,,,,,,,,,,,,73676,2022-09-20_10h04.50.054,vts_reward_expectancy_OFFLINE,2022.2.4,59.940003293777984,
,,,,,,,,,,,,,,,,,,,,,,,,,,,,,,,,,,1,0,1,0,7,0,7,0,,,,,,,,,,,,,,,,,,,,,,,,,,,,0,639,,,686.9797088269988,,,160,D,star,0.0015361679979832843,,,,,1,0,,,3,,,,,,,,683.2720691779978,683.2720691779978,683.2720691779978,683.2720691779978,684.7769621089974,684.7769621089974,684.7769621089974,684.7769621089974,684.7769621089974,684.7769621089974,684.7769621089974,684.7769621089974,repeat,number,numRpt,f,0.6820697210059734,vtsPrac,685.4780127400008,,,,,,,,,,,,,,,,,,,,,,,,,,73676,2022-09-20_10h04.50.054,vts_reward_expectancy_OFFLINE,2022.2.4,59.940003293777984,
,,,,,,,,,,,,,,,,,,,,,,,,,,,,,,,,,,1,0,1,0,8,0,8,0,,,,,,,,,,,,,,,,,,,,,,,,,,,,0,639,,,691.6512907979995,,,125,F,hexagon,0.0016361050002160482,,,,,1,0,,,3,,,,,,,,687.9588853460009,687.9588853460009,687.9588853460009,687.9588853460009,689.4656302169969,689.4656302169969,689.4656302169969,689.4656302169969,689.4656302169969,689.4656302169969,689.4656302169969,689.4656302169969,repeat,number,numRpt,d,0.6650820180002484,vtsPrac,690.1498174869994,,,,,,,,,,,,,,,,,,,,,,,,,,73676,2022-09-20_10h04.50.054,vts_reward_expectancy_OFFLINE,2022.2.4,59.940003293777984,
,,,,,,,,,,,,,,,,,,,,,,,,,,,,,,,,,,1,0,1,0,9,0,9,0,,,,,,,,,,,,,,,,,,,,,,,,,,,,0,639,,,696.5568370719993,,,181,H,star,0.0011395350011298433,,,,,1,0,,,3,,,,,,,,692.6301374109971,692.6301374109971,692.6301374109971,692.6301374109971,694.1373015950012,694.1373015950012,694.1373015950012,694.1373015950012,694.1373015950012,694.1373015950012,694.1373015950012,694.1373015950012,switch,letter,lettSwt,j,0.8966913129988825,vtsPrac,695.0551384809951,,,,,,,,,,,,,,,,,,,,,,,,,,73676,2022-09-20_10h04.50.054,vts_reward_expectancy_OFFLINE,2022.2.4,59.940003293777984,
,,,,,,,,,,,,,,,,,,,,,,,,,,,,,,,,,,1,0,1,0,10,0,10,0,,,,,,,,,,,,,,,,,,,,,,,,,,,,0,639,,,701.3119227380012,,,174,Y,hexagon,0.0016604570046183653,,,,,1,0,,,3,,,,,,,,697.5367904800005,697.5367904800005,697.5367904800005,697.5367904800005,699.0428838699954,699.0428838699954,699.0428838699954,699.0428838699954,699.0428838699954,699.0428838699954,699.0428838699954,699.0428838699954,repeat,letter,lettRpt,k,0.7430640120001044,vtsPrac,699.8103709409988,,,,,,,,,,,,,,,,,,,,,,,,,,73676,2022-09-20_10h04.50.054,vts_reward_expectancy_OFFLINE,2022.2.4,59.940003293777984,
,,,,,,,,,,,,,,,,,,,,,,,,,,,,,,,,,,1,0,1,0,11,0,11,0,,,,,,,,,,,,,,,,,,,,,,,,,,,,0,639,,,706.1340011819993,,,167,S,circle,0.0016527469997527078,,,,,1,0,,,3,,,,,,,,702.2909432129964,702.2909432129964,702.2909432129964,702.2909432129964,703.7979548329968,703.7979548329968,703.7979548329968,703.7979548329968,703.7979548329968,703.7979548329968,703.7979548329968,703.7979548329968,repeat,letter,lettRpt,k,0.8047433700048714,vtsPrac,704.6324197919967,,,,,,,,,,,,,,,,,,,,,,,,,,73676,2022-09-20_10h04.50.054,vts_reward_expectancy_OFFLINE,2022.2.4,59.940003293777984,
,,,,,,,,,,,,,,,,,,,,,,,,,,,,,,,,,,1,0,1,0,12,0,12,0,,,,,,,,,,,,,,,,,,,,,,,,,,,,0,639,,,711.4731453849963,,,167,S,triangle,0.001648505000048317,,,,,1,0,,,3,,,,,,,,707.1136115729969,707.1136115729969,707.1136115729969,707.1136115729969,708.6202558549994,708.6202558549994,708.6202558549994,708.6202558549994,708.6202558549994,708.6202558549994,708.6202558549994,708.6202558549994,repeat,letter,lettRpt,k,1.3344506400026148,vtsPrac,709.971477138999,,,,,,,,,,,,,,,,,,,,,,,,,,73676,2022-09-20_10h04.50.054,vts_reward_expectancy_OFFLINE,2022.2.4,59.940003293777984,
,,,,,,,,,,,,,,,,,,,,,,,,,,,,,,,,,,1,0,1,0,13,0,13,0,,,,,,,,,,,,,,,,,,,,,,,,,,,,0,639,,,716.4286871399963,,,139,H,circle,0.0013953939997009002,,,,,1,0,,,3,,,,,,,,712.4518688989992,712.4518688989992,712.4518688989992,712.4518688989992,713.9593287460011,713.9593287460011,713.9593287460011,713.9593287460011,713.9593287460011,713.9593287460011,713.9593287460011,713.9593287460011,switch,number,numSwt,d,0.9473144180010422,vtsPrac,714.9269964349951,,,,,,,,,,,,,,,,,,,,,,,,,,73676,2022-09-20_10h04.50.054,vts_reward_expectancy_OFFLINE,2022.2.4,59.940003293777984,
,,,,,,,,,,,,,,,,,,,,,,,,,,,,,,,,,,1,0,1,0,14,0,14,0,,,,,,,,,,,,,,,,,,,,,,,,,,,,0,639,,,721.4007732519967,,,132,W,triangle,0.0013652490015374497,,,,,1,0,,,3,,,,,,,,717.4098834280012,717.4098834280012,717.4098834280012,717.4098834280012,718.9147844709951,718.9147844709951,718.9147844709951,718.9147844709951,718.9147844709951,718.9147844709951,718.9147844709951,718.9147844709951,repeat,number,numRpt,d,0.9677924110001186,vtsPrac,719.8993770629968,,,,,,,,,,,,,,,,,,,,,,,,,,73676,2022-09-20_10h04.50.054,vts_reward_expectancy_OFFLINE,2022.2.4,59.940003293777984,
,,,,,,,,,,,,,,,,,,,,,,,,,,,,,,,,,,1,0,1,0,15,0,15,0,,,,,,,,,,,,,,,,,,,,,,,,,,,,0,639,,,726.1892952619964,,,125,U,star,0.0012683789973380044,,,,,1,0,,,3,,,,,,,,722.3819806729953,722.3819806729953,722.3819806729953,722.3819806729953,723.8869661649951,723.8869661649951,723.8869661649951,723.8869661649951,723.8869661649951,723.8869661649951,723.8869661649951,723.8869661649951,repeat,number,numRpt,d,0.7717702950030798,vtsPrac,724.6877892490011,,,,,,,,,,,,,,,,,,,,,,,,,,73676,2022-09-20_10h04.50.054,vts_reward_expectancy_OFFLINE,2022.2.4,59.940003293777984,
,,,,,,,,,,,,,,,,,,,,,,,,,,,,,,,,,,,,,,,,,,0,0,0,0,,,,,,,,,,,,,,,,,,,,,,,,0,639,,,751.8845063119952,,,160,U,circle,0.0022870419998071156,,,,,1,0,,,,,,,,,,,746.6724173920011,746.6724173920011,746.6724173920011,746.6724173920011,748.1803965090003,748.1803965090003,748.1803965090003,748.1803965090003,748.1803965090003,748.1803965090003,748.1803965090003,748.1803965090003,repeat,number,numRpt,f,2.182218087000365,noRew,,0,750.383827040001,,,,,,,,,,,,,,,,,,,,,,,,73676,2022-09-20_10h04.50.054,vts_reward_expectancy_OFFLINE,2022.2.4,59.940003293777984,
,,,,,,,,,,,,,,,,,,,,,,,,,,,,,,,,,,,,,,,,,,1,0,1,0,,,,,,,,,,,,,,,,,,,,,,,,0,639,,,756.7230946409982,,,125,D,triangle,0.0017257110011996701,,,,,1,0,,,,,,,,,,,752.8637414549958,752.8637414549958,752.8637414549958,752.8637414549958,754.3705074789978,754.3705074789978,754.3705074789978,754.3705074789978,754.3705074789978,754.3705074789978,754.3705074789978,754.3705074789978,repeat,number,numRpt,d,0.8327523710031528,noRew,,0,755.2215197429978,,,,,,,,,,,,,,,,,,,,,,,,73676,2022-09-20_10h04.50.054,vts_reward_expectancy_OFFLINE,2022.2.4,59.940003293777984,
,,,,,,,,,,,,,,,,,,,,,,,,,,,,,,,,,,,,,,,,,,2,0,2,0,,,,,,,,,,,,,,,,,,,,,,,,0,639,,,761.4283517789954,,,139,W,star,0.0012431719951564446,,,,,1,0,,,,,,,,,,,757.7018656739965,757.7018656739965,757.7018656739965,757.7018656739965,759.2092855989977,759.2092855989977,759.2092855989977,759.2092855989977,759.2092855989977,759.2092855989977,759.2092855989977,759.2092855989977,repeat,number,numRpt,d,0.6972712240021792,noRew,,0,759.9259312610011,,,,,,,,,,,,,,,,,,,,,,,,73676,2022-09-20_10h04.50.054,vts_reward_expectancy_OFFLINE,2022.2.4,59.940003293777984,
,,,,,,,,,,,,,,,,,,,,,,,,,,,,,,,,,,,,,,,,,,3,0,3,0,,,,,,,,,,,,,,,,,,,,,,,,0,639,,,766.1836558340001,,,146,Y,hexagon,0.0016680219996487722,,,,,1,0,,,,,,,,,,,762.4082391269985,762.4082391269985,762.4082391269985,762.4082391269985,763.91435852,763.91435852,763.91435852,763.91435852,763.91435852,763.91435852,763.91435852,763.91435852,switch,letter,lettSwt,k,0.7442514979993575,noRew,,0,764.6819273199944,,,,,,,,,,,,,,,,,,,,,,,,73676,2022-09-20_10h04.50.054,vts_reward_expectancy_OFFLINE,2022.2.4,59.940003293777984,
,,,,,,,,,,,,,,,,,,,,,,,,,,,,,,,,,,,,,,,,,,4,0,4,0,,,,,,,,,,,,,,,,,,,,,,,,0,639,,,770.9720916899969,,,160,U,triangle,0.0014525580045301467,,,,,1,0,,,,,,,,,,,767.1627395799951,767.1627395799951,767.1627395799951,767.1627395799951,768.6696286509978,768.6696286509978,768.6696286509978,768.6696286509978,768.6696286509978,768.6696286509978,768.6696286509978,768.6696286509978,repeat,letter,lettRpt,k,0.7731814069993561,noRew,,0,769.4705323679955,,,,,,,,,,,,,,,,,,,,,,,,73676,2022-09-20_10h04.50.054,vts_reward_expectancy_OFFLINE,2022.2.4,59.940003293777984,
,,,,,,,,,,,,,,,,,,,,,,,,,,,,,,,,,,,,,,,,,,5,0,5,0,,,,,,,,,,,,,,,,,,,,,,,,0,639,,,776.127772132997,,,125,D,hexagon,0.0016366970012313686,,,,,1,0,,,,,,,,,,,771.953442389,771.953442389,771.953442389,771.953442389,773.4583238220002,773.4583238220002,773.4583238220002,773.4583238220002,773.4583238220002,773.4583238220002,773.4583238220002,773.4583238220002,repeat,letter,lettRpt,j,1.144620106999355,noRew,,0,774.6263142269963,,,,,,,,,,,,,,,,,,,,,,,,73676,2022-09-20_10h04.50.054,vts_reward_expectancy_OFFLINE,2022.2.4,59.940003293777984,
,,,,,,,,,,,,,,,,,,,,,,,,,,,,,,,,,,,,,,,,,,6,0,6,0,,,,,,,,,,,,,,,,,,,,,,,,0,639,,,781.0499539669981,,,139,W,star,0.0016734359960537404,,,,,1,0,,,,,,,,,,,777.1075293459944,777.1075293459944,777.1075293459944,777.1075293459944,778.6139975709957,778.6139975709957,778.6139975709957,778.6139975709957,778.6139975709957,778.6139975709957,778.6139975709957,778.6139975709957,repeat,letter,lettRpt,k,0.9088085050025256,noRew,,0,779.5483968509943,,,,,,,,,,,,,,,,,,,,,,,,73676,2022-09-20_10h04.50.054,vts_reward_expectancy_OFFLINE,2022.2.4,59.940003293777984,
,,,,,,,,,,,,,,,,,,,,,,,,,,,,,,,,,,,,,,,,,,7,0,7,0,,,,,,,,,,,,,,,,,,,,,,,,0,639,,,786.7728277950009,,,146,Y,triangle,0.0013912170034018345,,,,,1,0,,,,,,,,,,,782.0310649509993,782.0310649509993,782.0310649509993,782.0310649509993,783.5360746849983,783.5360746849983,783.5360746849983,783.5360746849983,783.5360746849983,783.5360746849983,783.5360746849983,783.5360746849983,switch,number,numSwt,d,1.714163382006518,noRew,,0,785.2713324729993,,,,,,,,,,,,,,,,,,,,,,,,73676,2022-09-20_10h04.50.054,vts_reward_expectancy_OFFLINE,2022.2.4,59.940003293777984,
,,,,,,,,,,,,,,,,,,,,,,,,,,,,,,,,,,,,,,,,,,8,0,8,0,,,,,,,,,,,,,,,,,,,,,,,,0,639,,,791.8784995359965,,,174,U,circle,0.0016275669986498542,,,,,1,0,,,,,,,,,,,787.7525789379943,787.7525789379943,787.7525789379943,787.7525789379943,789.2589844079994,789.2589844079994,789.2589844079994,789.2589844079994,789.2589844079994,789.2589844079994,789.2589844079994,789.2589844079994,repeat,number,numRpt,f,1.095313278005051,noRew,,0,790.3768674509993,,,,,,,,,,,,,,,,,,,,,,,,73676,2022-09-20_10h04.50.054,vts_reward_expectancy_OFFLINE,2022.2.4,59.940003293777984,
,,,,,,,,,,,,,,,,,,,,,,,,,,,,,,,,,,,,,,,,,,9,0,9,0,,,,,,,,,,,,,,,,,,,,,,,,0,639,,,798.8693925010011,,799.370129445997,160,B,star,0.0017631810042075813,,,,,-1,0,,,,,,,,,,,792.8596763629976,792.8596763629976,792.8596763629976,792.8596763629976,794.3644691199952,794.3644691199952,794.3644691199952,794.3644691199952,794.3644691199952,794.3644691199952,794.3644691199952,794.3644691199952,switch,no_choice,NA,None,,noRew,,0,797.3681386899989,797.3681386899989,797.3681386899989,797.3681386899989,797.3681386899989,798.8693925010011,,,,,,,,,,,,,,,,,,,73676,2022-09-20_10h04.50.054,vts_reward_expectancy_OFFLINE,2022.2.4,59.940003293777984,
,,,,,,,,,,,,,,,,,,,,,,,,,,,,,,,,,,,,,,,,,,10,0,10,0,,,,,,,,,,,,,,,,,,,,,,,,0,639,,,803.6917384560002,,,132,W,circle,0.009040643999469467,,,,,1,0,,,,,,,,,,,799.8650814639986,799.8650814639986,799.8650814639986,799.8650814639986,801.372454190001,801.372454190001,801.372454190001,801.372454190001,801.372454190001,801.372454190001,801.372454190001,801.372454190001,switch,number,numSwt,d,0.7984866449987749,noRew,,0,802.1913278489956,,,,,,,,,,,,,,,,,,,,,,,,73676,2022-09-20_10h04.50.054,vts_reward_expectancy_OFFLINE,2022.2.4,59.940003293777984,
,,,,,,,,,,,,,,,,,,,,,,,,,,,,,,,,,,,,,,,,,,11,0,11,0,,,,,,,,,,,,,,,,,,,,,,,,0,639,,,808.2465205679982,,,139,F,triangle,0.0015316889985115267,,,,,1,0,,,,,,,,,,,804.6729262340014,804.6729262340014,804.6729262340014,804.6729262340014,806.1778960820011,806.1778960820011,806.1778960820011,806.1778960820011,806.1778960820011,806.1778960820011,806.1778960820011,806.1778960820011,repeat,number,numRpt,d,0.5447340440005064,noRew,,0,806.7449639580009,,,,,,,,,,,,,,,,,,,,,,,,73676,2022-09-20_10h04.50.054,vts_reward_expectancy_OFFLINE,2022.2.4,59.940003293777984,
,,,,,,,,,,,,,,,,,,,,,,,,,,,,,,,,,,,,,,,,,,12,0,12,0,,,,,,,,,,,,,,,,,,,,,,,,0,639,,,812.7514891169994,,,139,B,star,0.0015649989945814013,,,,,1,0,,,,,,,,,,,809.2254158149954,809.2254158149954,809.2254158149954,809.2254158149954,810.7326697120006,810.7326697120006,810.7326697120006,810.7326697120006,810.7326697120006,810.7326697120006,810.7326697120006,810.7326697120006,repeat,number,numRpt,d,0.4938033260041266,noRew,,0,811.24991839,,,,,,,,,,,,,,,,,,,,,,,,73676,2022-09-20_10h04.50.054,vts_reward_expectancy_OFFLINE,2022.2.4,59.940003293777984,
,,,,,,,,,,,,,,,,,,,,,,,,,,,,,,,,,,,,,,,,,,13,0,13,0,,,,,,,,,,,,,,,,,,,,,,,,0,639,,,817.4402738989957,,,181,H,circle,0.0016666000010445714,,,,,1,0,,,,,,,,,,,813.730798093995,813.730798093995,813.730798093995,813.730798093995,815.2375990119981,815.2375990119981,815.2375990119981,815.2375990119981,815.2375990119981,815.2375990119981,815.2375990119981,815.2375990119981,repeat,number,numRpt,f,0.6764945910035749,noRew,,0,815.9384739009984,,,,,,,,,,,,,,,,,,,,,,,,73676,2022-09-20_10h04.50.054,vts_reward_expectancy_OFFLINE,2022.2.4,59.940003293777984,
,,,,,,,,,,,,,,,,,,,,,,,,,,,,,,,,,,,,,,,,,,14,0,14,0,,,,,,,,,,,,,,,,,,,,,,,,0,639,,,822.8461474729993,,,174,D,triangle,0.001739557999826502,,,,,1,0,,,,,,,,,,,818.4192821939941,818.4192821939941,818.4192821939941,818.4192821939941,819.9262341770009,819.9262341770009,819.9262341770009,819.9262341770009,819.9262341770009,819.9262341770009,819.9262341770009,819.9262341770009,repeat,number,numRpt,f,1.3875985390041023,noRew,,0,821.3446806869979,,,,,,,,,,,,,,,,,,,,,,,,73676,2022-09-20_10h04.50.054,vts_reward_expectancy_OFFLINE,2022.2.4,59.940003293777984,
,,,,,,,,,,,,,,,,,,,,,,,,,,,,,,,,,,,,,,,,,,15,0,15,0,,,,,,,,,,,,,,,,,,,,,,,,0,639,,,827.4845627030008,,,125,Y,hexagon,0.001631050996365957,,,,,1,0,,,,,,,,,,,823.8253946629993,823.8253946629993,823.8253946629993,823.8253946629993,825.3322018830004,825.3322018830004,825.3322018830004,825.3322018830004,825.3322018830004,825.3322018830004,825.3322018830004,825.3322018830004,repeat,number,numRpt,d,0.622844930003339,noRew,,0,825.9830532639971,,,,,,,,,,,,,,,,,,,,,,,,73676,2022-09-20_10h04.50.054,vts_reward_expectancy_OFFLINE,2022.2.4,59.940003293777984,
,,,,,,,,,,,,,,,,,,,,,,,,,,,,,,,,,,,,,,,,,,16,0,16,0,,,,,,,,,,,,,,,,,,,,,,,,0,639,,,832.2899725969983,,,139,B,hexagon,0.0012893219973193482,,,,,1,0,,,,,,,,,,,828.4625226229982,828.4625226229982,828.4625226229982,828.4625226229982,829.9705875539948,829.9705875539948,829.9705875539948,829.9705875539948,829.9705875539948,829.9705875539948,829.9705875539948,829.9705875539948,repeat,number,numRpt,d,0.8006832800019765,noRew,,0,830.7882830659946,,,,,,,,,,,,,,,,,,,,,,,,73676,2022-09-20_10h04.50.054,vts_reward_expectancy_OFFLINE,2022.2.4,59.940003293777984,
,,,,,,,,,,,,,,,,,,,,,,,,,,,,,,,,,,,,,,,,,,17,0,17,0,,,,,,,,,,,,,,,,,,,,,,,,0,639,,,837.095096512996,,,167,U,triangle,0.0013763080060016364,,,,,1,0,,,,,,,,,,,833.26873032,833.26873032,833.26873032,833.26873032,834.7758714049996,834.7758714049996,834.7758714049996,834.7758714049996,834.7758714049996,834.7758714049996,834.7758714049996,834.7758714049996,repeat,number,numRpt,f,0.7857866400008788,noRew,,0,835.5934177849995,,,,,,,,,,,,,,,,,,,,,,,,73676,2022-09-20_10h04.50.054,vts_reward_expectancy_OFFLINE,2022.2.4,59.940003293777984,
,,,,,,,,,,,,,,,,,,,,,,,,,,,,,,,,,,,,,,,,,,18,0,18,0,,,,,,,,,,,,,,,,,,,,,,,,0,639,,,841.8670883679952,,,174,W,circle,0.0013294400050654076,,,,,0,0,,,,,,,,,,,838.0763062049955,838.0763062049955,838.0763062049955,838.0763062049955,839.5811449169996,839.5811449169996,839.5811449169996,839.5811449169996,839.5811449169996,839.5811449169996,839.5811449169996,839.5811449169996,repeat,number,NA,d,0.7572174290035036,noRew,,0,840.3798584249962,,,,,,,,,,,,,,,,,,,,,,,,73676,2022-09-20_10h04.50.054,vts_reward_expectancy_OFFLINE,2022.2.4,59.940003293777984,
,,,,,,,,,,,,,,,,,,,,,,,,,,,,,,,,,,,,,,,,,,19,0,19,0,,,,,,,,,,,,,,,,,,,,,,,,0,639,,,846.6723447869954,,,125,H,hexagon,0.001735705001919996,,,,,1,1,,,,,,,,,,,842.8483399559991,842.8483399559991,842.8483399559991,842.8483399559991,844.3530965469981,844.3530965469981,844.3530965469981,844.3530965469981,844.3530965469981,844.3530965469981,844.3530965469981,844.3530965469981,repeat,number,numRpt,d,0.7849746209976729,noRew,,0,845.1706639499971,,,,,,,,,,,,,,,,,,,,,,,,73676,2022-09-20_10h04.50.054,vts_reward_expectancy_OFFLINE,2022.2.4,59.940003293777984,
,,,,,,,,,,,,,,,,,,,,,,,,,,,,,,,,,,,,,,,,,,20,0,20,0,,,,,,,,,,,,,,,,,,,,,,,,0,639,,,851.4275944229958,,,139,Y,triangle,0.0013829790041199885,,,,,1,0,,,,,,,,,,,847.6512024659969,847.6512024659969,847.6512024659969,847.6512024659969,849.1585146129946,849.1585146129946,849.1585146129946,849.1585146129946,849.1585146129946,849.1585146129946,849.1585146129946,849.1585146129946,repeat,number,numRpt,d,0.740481531000114,noRew,,0,849.9259356429975,,,,,,,,,,,,,,,,,,,,,,,,73676,2022-09-20_10h04.50.054,vts_reward_expectancy_OFFLINE,2022.2.4,59.940003293777984,
,,,,,,,,,,,,,,,,,,,,,,,,,,,,,,,,,,,,,,,,,,21,0,21,0,,,,,,,,,,,,,,,,,,,,,,,,0,639,,,856.2995836959963,,,160,B,star,0.001730227995722089,,,,,1,0,,,,,,,,,,,852.4088230889975,852.4088230889975,852.4088230889975,852.4088230889975,853.9136282489999,853.9136282489999,853.9136282489999,853.9136282489999,853.9136282489999,853.9136282489999,853.9136282489999,853.9136282489999,repeat,number,numRpt,f,0.857151819007413,noRew,,0,854.7982519590005,,,,,,,,,,,,,,,,,,,,,,,,73676,2022-09-20_10h04.50.054,vts_reward_expectancy_OFFLINE,2022.2.4,59.940003293777984,
,,,,,,,,,,,,,,,,,,,,,,,,,,,,,,,,,,,,,,,,,,22,0,22,0,,,,,,,,,,,,,,,,,,,,,,,,0,639,,,861.0882002660001,,,174,H,circle,0.0017427979983040132,,,,,0,0,,,,,,,,,,,857.2795673759974,857.2795673759974,857.2795673759974,857.2795673759974,858.7856775429973,858.7856775429973,858.7856775429973,858.7856775429973,858.7856775429973,858.7856775429973,858.7856775429973,858.7856775429973,repeat,number,NA,d,0.769185497003491,noRew,,0,859.588019457995,,,,,,,,,,,,,,,,,,,,,,,,73676,2022-09-20_10h04.50.054,vts_reward_expectancy_OFFLINE,2022.2.4,59.940003293777984,
,,,,,,,,,,,,,,,,,,,,,,,,,,,,,,,,,,,,,,,,,,23,0,23,0,,,,,,,,,,,,,,,,,,,,,,,,0,639,,,866.1937862029954,,,167,W,triangle,0.0015982680051820353,,,,,1,1,,,,,,,,,,,862.0671951170007,862.0671951170007,862.0671951170007,862.0671951170007,863.5744621419944,863.5744621419944,863.5744621419944,863.5744621419944,863.5744621419944,863.5744621419944,863.5744621419944,863.5744621419944,switch,letter,lettSwt,k,1.1003421810019063,noRew,,0,864.6935338059993,,,,,,,,,,,,,,,,,,,,,,,,73676,2022-09-20_10h04.50.054,vts_reward_expectancy_OFFLINE,2022.2.4,59.940003293777984,
,,,,,,,,,,,,,,,,,,,,,,,,,,,,,,,,,,,,,,,,,,24,0,24,0,,,,,,,,,,,,,,,,,,,,,,,,0,639,,,870.9657545589944,,,174,F,star,0.0015332490002037957,,,,,1,0,,,,,,,,,,,867.1728634679966,867.1728634679966,867.1728634679966,867.1728634679966,868.6799567599955,868.6799567599955,868.6799567599955,868.6799567599955,868.6799567599955,868.6799567599955,868.6799567599955,868.6799567599955,repeat,letter,lettRpt,j,0.7545249410031829,noRew,,0,869.4643668200006,,,,,,,,,,,,,,,,,,,,,,,,73676,2022-09-20_10h04.50.054,vts_reward_expectancy_OFFLINE,2022.2.4,59.940003293777984,
,,,,,,,,,,,,,,,,,,,,,,,,,,,,,,,,,,,,,,,,,,25,0,25,0,,,,,,,,,,,,,,,,,,,,,,,,0,639,,,875.8711738290003,,,132,Y,circle,0.0017544700021971948,,,,,1,0,,,,,,,,,,,871.9451649519979,871.9451649519979,871.9451649519979,871.9451649519979,873.4518033649947,873.4518033649947,873.4518033649947,873.4518033649947,873.4518033649947,873.4518033649947,873.4518033649947,873.4518033649947,repeat,letter,lettRpt,k,0.886402422998799,noRew,,0,874.3698700449968,,,,,,,,,,,,,,,,,,,,,,,,73676,2022-09-20_10h04.50.054,vts_reward_expectancy_OFFLINE,2022.2.4,59.940003293777984,
,,,,,,,,,,,,,,,,,,,,,,,,,,,,,,,,,,,,,,,,,,26,0,26,0,,,,,,,,,,,,,,,,,,,,,,,,0,639,,,880.6099092020013,,,181,D,circle,0.0015920439982437529,,,,,1,0,,,,,,,,,,,876.8510056390005,876.8510056390005,876.8510056390005,876.8510056390005,878.357279939999,878.357279939999,878.357279939999,878.357279939999,878.357279939999,878.357279939999,878.357279939999,878.357279939999,repeat,letter,lettRpt,j,0.7249816780094989,noRew,,0,879.108361300001,,,,,,,,,,,,,,,,,,,,,,,,73676,2022-09-20_10h04.50.054,vts_reward_expectancy_OFFLINE,2022.2.4,59.940003293777984,
,,,,,,,,,,,,,,,,,,,,,,,,,,,,,,,,,,,,,,,,,,27,0,27,0,,,,,,,,,,,,,,,,,,,,,,,,0,639,,,885.2648033410005,,,160,U,star,0.001638369998545386,,,,,1,0,,,,,,,,,,,881.5888139469971,881.5888139469971,881.5888139469971,881.5888139469971,883.0957506400009,883.0957506400009,883.0957506400009,883.0957506400009,883.0957506400009,883.0957506400009,883.0957506400009,883.0957506400009,repeat,letter,lettRpt,k,0.6345604590023868,noRew,,0,883.7632735869993,,,,,,,,,,,,,,,,,,,,,,,,73676,2022-09-20_10h04.50.054,vts_reward_expectancy_OFFLINE,2022.2.4,59.940003293777984,
,,,,,,,,,,,,,,,,,,,,,,,,,,,,,,,,,,,,,,,,,,28,0,28,0,,,,,,,,,,,,,,,,,,,,,,,,0,639,,,890.0367153109983,,,125,S,circle,0.0015082929967320524,,,,,1,0,,,,,,,,,,,886.2459067669988,886.2459067669988,886.2459067669988,886.2459067669988,887.750951709997,887.750951709997,887.750951709997,887.750951709997,887.750951709997,887.750951709997,887.750951709997,887.750951709997,repeat,letter,lettRpt,k,0.7558560850084177,noRew,,0,888.535449559,,,,,,,,,,,,,,,,,,,,,,,,73676,2022-09-20_10h04.50.054,vts_reward_expectancy_OFFLINE,2022.2.4,59.940003293777984,
,,,,,,,,,,,,,,,,,,,,,,,,,,,,,,,,,,,,,,,,,,29,0,29,0,,,,,,,,,,,,,,,,,,,,,,,,0,639,,,894.7753851249945,,,160,U,triangle,0.001616217996343039,,,,,1,0,,,,,,,,,,,891.014832754001,891.014832754001,891.014832754001,891.014832754001,892.5230596490001,892.5230596490001,892.5230596490001,892.5230596490001,892.5230596490001,892.5230596490001,892.5230596490001,892.5230596490001,repeat,letter,lettRpt,k,0.7197656300049857,noRew,,0,893.2732057449975,,,,,,,,,,,,,,,,,,,,,,,,73676,2022-09-20_10h04.50.054,vts_reward_expectancy_OFFLINE,2022.2.4,59.940003293777984,
,,,,,,,,,,,,,,,,,,,,,,,,,,,,,,,,,,,,,,,,,,30,0,30,0,,,,,,,,,,,,,,,,,,,,,,,,0,639,,,899.6474595699983,,,181,F,triangle,0.0014813960005994886,,,,,1,0,,,,,,,,,,,895.7566589729977,895.7566589729977,895.7566589729977,895.7566589729977,897.2614408009977,897.2614408009977,897.2614408009977,897.2614408009977,897.2614408009977,897.2614408009977,897.2614408009977,897.2614408009977,repeat,letter,lettRpt,j,0.8604723009993904,noRew,,0,898.1462923689978,,,,,,,,,,,,,,,,,,,,,,,,73676,2022-09-20_10h04.50.054,vts_reward_expectancy_OFFLINE,2022.2.4,59.940003293777984,
,,,,,,,,,,,,,,,,,,,,,,,,,,,,,,,,,,,,,,,,,,31,0,31,0,,,,,,,,,,,,,,,,,,,,,,,,0,639,,,904.4361695260013,,,132,W,star,0.0016958929991233163,,,,,1,0,,,,,,,,,,,900.6268533679977,900.6268533679977,900.6268533679977,900.6268533679977,902.1335934329982,902.1335934329982,902.1335934329982,902.1335934329982,902.1335934329982,902.1335934329982,902.1335934329982,902.1335934329982,repeat,letter,lettRpt,k,0.7730521440025768,noRew,,0,902.9347561169998,,,,,,,,,,,,,,,,,,,,,,,,73676,2022-09-20_10h04.50.054,vts_reward_expectancy_OFFLINE,2022.2.4,59.940003293777984,
