LTriangleOpac,LCircleOpac,LHexagonOpac,LStarOpac,RTriangleOpac,RCircleOpac,RHexagonOpac,RStarOpac,LShape_ID,RShape_ID,training_blocks.thisRepN,training_blocks.thisTrialN,training_blocks.thisN,training_blocks.thisIndex,training.thisRepN,training.thisTrialN,training.thisN,training.thisIndex,task1_prac_redo.thisRepN,task1_prac_redo.thisTrialN,task1_prac_redo.thisN,task1_prac_redo.thisIndex,task1_prac_trials.thisRepN,task1_prac_trials.thisTrialN,task1_prac_trials.thisN,task1_prac_trials.thisIndex,task2_prac_redo.thisRepN,task2_prac_redo.thisTrialN,task2_prac_redo.thisN,task2_prac_redo.thisIndex,task2_praac_trials.thisRepN,task2_praac_trials.thisTrialN,task2_praac_trials.thisN,task2_praac_trials.thisIndex,vts_prac_redo.thisRepN,vts_prac_redo.thisTrialN,vts_prac_redo.thisN,vts_prac_redo.thisIndex,vts_practice_trials.thisRepN,vts_practice_trials.thisTrialN,vts_practice_trials.thisN,vts_practice_trials.thisIndex,trials_norew.thisRepN,trials_norew.thisTrialN,trials_norew.thisN,trials_norew.thisIndex,block.thisRepN,block.thisTrialN,block.thisN,block.thisIndex,trials_rew.thisRepN,trials_rew.thisTrialN,trials_rew.thisN,trials_rew.thisIndex,key_resp.started,key_resp.keys,key_resp.rt,left_circle.started,right_circle.started,left_triangle.started,right_triangle.started,left_star.started,right_star.started,left_hexagon.started,right_hexagon.started,training_fix.started,training_resp.started,training_resp.keys,training_resp.rt,points_trial,points_cumul,trainBlock,training_feedback_txt.started,fix.started,training_feedback_txt.stopped,curr_topStim,curr_bottStim,curr_shape,ISI.started,tgt_fix_prac1.started,top_target_prac1.started,bott_target_prac1.started,target_resp_prac1.started,acc,E1,target_resp_prac1.keys,target_resp_prac1.rt,pracBlock,prac_fback_text.started,prac_fback_text.stopped,fix.stopped,tgt_fix_prac2.started,top_target_prac2.started,bott_target_prac2.started,target_resp_prac2.started,target_resp_prac2.keys,target_resp_prac2.rt,star.started,hegagon.started,triangle.started,circle.started,star.stopped,hegagon.stopped,triangle.stopped,circle.stopped,top_target.started,tgt_fix.started,bot_target.started,target_resp.started,alt,task,condition,target_resp.keys,target_resp.rt,rewCond,vts_fback.started,vts_fback.stopped,blockNum,norew_fback.started,norew_fback.stopped,key_resp_2.keys,key_resp_2.rt,feedbk_text.started,feedbk_text.stopped,top_target.stopped,tgt_fix.stopped,bot_target.stopped,target_resp.stopped,participant,date,expName,psychopyVersion,frameRate,
,,,,,,,,,,,,,,,,,,,,,,,,,,,,,,,,,,,,,,,,,,,,,,,,,,,,,,12.993927720999636,space,0.9870661820004898,,,,,,,,,,,,,,,,,,,,,,,,,,,,,,,,,,,,,,,,,,,,,,,,,,,,,,,,,,,,,,,,,,,,,,,,95034,2022-09-16_12h00.42.748,vts_reward_expectancy,2022.2.4,59.86118359128259,
0,1,0,0,0,0,1,0,circle,hexagon,0,0,0,0,0,0,0,4,,,,,,,,,,,,,,,,,,,,,,,,,,,,,,,,,,,,,,,,14.60831242399945,14.60831242399945,14.60831242399945,14.60831242399945,14.60831242399945,14.60831242399945,14.60831242399945,14.60831242399945,14.60831242399945,14.60831242399945,l,1.62855297400165,10,10,0,16.25998136599992,17.76159729199935,,,,,,,,,,,,,,,,,,,,,,,,,,,,,,,,,,,,,,,,,,,,,,,,,,,,,,,95034,2022-09-16_12h00.42.748,vts_reward_expectancy,2022.2.4,59.86118359128259,
0,1,0,0,0,0,0,1,circle,star,0,0,0,0,0,1,1,5,,,,,,,,,,,,,,,,,,,,,,,,,,,,,,,,,,,,,,,,18.262375942998915,18.262375942998915,18.262375942998915,18.262375942998915,18.262375942998915,18.262375942998915,18.262375942998915,18.262375942998915,18.262375942998915,18.262375942998915,a,0.8700219660004223,1,11,0,19.16304320999916,20.66493994099983,,,,,,,,,,,,,,,,,,,,,,,,,,,,,,,,,,,,,,,,,,,,,,,,,,,,,,,95034,2022-09-16_12h00.42.748,vts_reward_expectancy,2022.2.4,59.86118359128259,
0,0,1,0,0,1,0,0,hexagon,circle,0,0,0,0,0,2,2,7,,,,,,,,,,,,,,,,,,,,,,,,,,,,,,,,,,,,,,,,21.16538743899946,21.16538743899946,21.16538743899946,21.16538743899946,21.16538743899946,21.16538743899946,21.16538743899946,21.16538743899946,21.16538743899946,21.16538743899946,a,1.0713769600006344,1,12,0,22.266688617999534,23.768367186999967,,,,,,,,,,,,,,,,,,,,,,,,,,,,,,,,,,,,,,,,,,,,,,,,,,,,,,,95034,2022-09-16_12h00.42.748,vts_reward_expectancy,2022.2.4,59.86118359128259,
0,1,0,0,1,0,0,0,circle,triangle,0,0,0,0,0,3,3,3,,,,,,,,,,,,,,,,,,,,,,,,,,,,,,,,,,,,,,,,24.268979763999596,24.268979763999596,24.268979763999596,24.268979763999596,24.268979763999596,24.268979763999596,24.268979763999596,24.268979763999596,24.268979763999596,24.268979763999596,l,2.1918771010005003,10,22,0,26.48803335299999,27.98972442900049,,,,,,,,,,,,,,,,,,,,,,,,,,,,,,,,,,,,,,,,,,,,,,,,,,,,,,,95034,2022-09-16_12h00.42.748,vts_reward_expectancy,2022.2.4,59.86118359128259,
1,0,0,0,0,0,1,0,triangle,hexagon,0,0,0,0,0,4,4,1,,,,,,,,,,,,,,,,,,,,,,,,,,,,,,,,,,,,,,,,28.490047227000105,28.490047227000105,28.490047227000105,28.490047227000105,28.490047227000105,28.490047227000105,28.490047227000105,28.490047227000105,28.490047227000105,28.490047227000105,l,1.4363422420010465,1,23,0,29.958353906999037,31.46009787100047,,,,,,,,,,,,,,,,,,,,,,,,,,,,,,,,,,,,,,,,,,,,,,,,,,,,,,,95034,2022-09-16_12h00.42.748,vts_reward_expectancy,2022.2.4,59.86118359128259,
1,0,0,0,0,1,0,0,triangle,circle,0,0,0,0,0,5,5,0,,,,,,,,,,,,,,,,,,,,,,,,,,,,,,,,,,,,,,,,31.960886523000227,31.960886523000227,31.960886523000227,31.960886523000227,31.960886523000227,31.960886523000227,31.960886523000227,31.960886523000227,31.960886523000227,31.960886523000227,a,1.0754803860018,10,33,0,33.062110323000525,34.563555909999195,,,,,,,,,,,,,,,,,,,,,,,,,,,,,,,,,,,,,,,,,,,,,,,,,,,,,,,95034,2022-09-16_12h00.42.748,vts_reward_expectancy,2022.2.4,59.86118359128259,
1,0,0,0,0,0,0,1,triangle,star,0,0,0,0,0,6,6,2,,,,,,,,,,,,,,,,,,,,,,,,,,,,,,,,,,,,,,,,35.06394987400017,35.06394987400017,35.06394987400017,35.06394987400017,35.06394987400017,35.06394987400017,35.06394987400017,35.06394987400017,35.06394987400017,35.06394987400017,l,1.0294340470009047,1,34,0,36.11520144699898,37.61716625999907,,,,,,,,,,,,,,,,,,,,,,,,,,,,,,,,,,,,,,,,,,,,,,,,,,,,,,,95034,2022-09-16_12h00.42.748,vts_reward_expectancy,2022.2.4,59.86118359128259,
0,0,0,1,1,0,0,0,star,triangle,0,0,0,0,0,7,7,9,,,,,,,,,,,,,,,,,,,,,,,,,,,,,,,,,,,,,,,,38.11780597899997,38.11780597899997,38.11780597899997,38.11780597899997,38.11780597899997,38.11780597899997,38.11780597899997,38.11780597899997,38.11780597899997,38.11780597899997,l,1.159096220999345,10,44,0,39.30208204399969,40.80370457400022,,,,,,,,,,,,,,,,,,,,,,,,,,,,,,,,,,,,,,,,,,,,,,,,,,,,,,,95034,2022-09-16_12h00.42.748,vts_reward_expectancy,2022.2.4,59.86118359128259,
0,0,0,1,0,1,0,0,star ,circle,0,0,0,0,0,8,8,10,,,,,,,,,,,,,,,,,,,,,,,,,,,,,,,,,,,,,,,,41.3044644950005,41.3044644950005,41.3044644950005,41.3044644950005,41.3044644950005,41.3044644950005,41.3044644950005,41.3044644950005,41.3044644950005,41.3044644950005,l,1.301496877002137,10,54,0,42.62240361399927,44.12402507899969,,,,,,,,,,,,,,,,,,,,,,,,,,,,,,,,,,,,,,,,,,,,,,,,,,,,,,,95034,2022-09-16_12h00.42.748,vts_reward_expectancy,2022.2.4,59.86118359128259,
0,0,1,0,0,0,0,1,hexagon,star,0,0,0,0,0,9,9,8,,,,,,,,,,,,,,,,,,,,,,,,,,,,,,,,,,,,,,,,44.62485298200045,44.62485298200045,44.62485298200045,44.62485298200045,44.62485298200045,44.62485298200045,44.62485298200045,44.62485298200045,44.62485298200045,44.62485298200045,a,1.1481087310003204,10,64,0,45.792976855000234,47.29415414799951,,,,,,,,,,,,,,,,,,,,,,,,,,,,,,,,,,,,,,,,,,,,,,,,,,,,,,,95034,2022-09-16_12h00.42.748,vts_reward_expectancy,2022.2.4,59.86118359128259,
0,0,0,1,0,0,1,0,star,hexagon,0,0,0,0,0,10,10,11,,,,,,,,,,,,,,,,,,,,,,,,,,,,,,,,,,,,,,,,47.79469280699959,47.79469280699959,47.79469280699959,47.79469280699959,47.79469280699959,47.79469280699959,47.79469280699959,47.79469280699959,47.79469280699959,47.79469280699959,l,1.2904281610008184,1,65,0,49.11337426099999,50.61447553399921,,,,,,,,,,,,,,,,,,,,,,,,,,,,,,,,,,,,,,,,,,,,,,,,,,,,,,,95034,2022-09-16_12h00.42.748,vts_reward_expectancy,2022.2.4,59.86118359128259,
0,0,1,0,1,0,0,0,hexagon,triangle,0,0,0,0,0,11,11,6,,,,,,,,,,,,,,,,,,,,,,,,,,,,,,,,,,,,,,,,51.114931439999054,51.114931439999054,51.114931439999054,51.114931439999054,51.114931439999054,51.114931439999054,51.114931439999054,51.114931439999054,51.114931439999054,51.114931439999054,l,1.0819609310019587,10,75,0,52.21667892900041,53.717957769998975,,,,,,,,,,,,,,,,,,,,,,,,,,,,,,,,,,,,,,,,,,,,,,,,,,,,,,,95034,2022-09-16_12h00.42.748,vts_reward_expectancy,2022.2.4,59.86118359128259,
0,0,1,0,0,1,0,0,hexagon,circle,0,0,0,0,1,0,12,7,,,,,,,,,,,,,,,,,,,,,,,,,,,,,,,,,,,,,,,,54.218282879999606,54.218282879999606,54.218282879999606,54.218282879999606,54.218282879999606,54.218282879999606,54.218282879999606,54.218282879999606,54.218282879999606,54.218282879999606,a,1.507352061000347,10,85,0,55.753386059999684,57.255325232999894,,,,,,,,,,,,,,,,,,,,,,,,,,,,,,,,,,,,,,,,,,,,,,,,,,,,,,,95034,2022-09-16_12h00.42.748,vts_reward_expectancy,2022.2.4,59.86118359128259,
1,0,0,0,0,0,0,1,triangle,star,0,0,0,0,1,1,13,2,,,,,,,,,,,,,,,,,,,,,,,,,,,,,,,,,,,,,,,,57.75577341099961,57.75577341099961,57.75577341099961,57.75577341099961,57.75577341099961,57.75577341099961,57.75577341099961,57.75577341099961,57.75577341099961,57.75577341099961,a,1.6187201610009652,1,86,0,59.39083441500043,60.89258250800049,,,,,,,,,,,,,,,,,,,,,,,,,,,,,,,,,,,,,,,,,,,,,,,,,,,,,,,95034,2022-09-16_12h00.42.748,vts_reward_expectancy,2022.2.4,59.86118359128259,
0,0,1,0,0,0,0,1,hexagon,star,0,0,0,0,1,2,14,8,,,,,,,,,,,,,,,,,,,,,,,,,,,,,,,,,,,,,,,,61.393320244998904,61.393320244998904,61.393320244998904,61.393320244998904,61.393320244998904,61.393320244998904,61.393320244998904,61.393320244998904,61.393320244998904,61.393320244998904,a,1.0851858610003546,10,96,0,62.51101444699998,64.01289824199921,,,,,,,,,,,,,,,,,,,,,,,,,,,,,,,,,,,,,,,,,,,,,,,,,,,,,,,95034,2022-09-16_12h00.42.748,vts_reward_expectancy,2022.2.4,59.86118359128259,
0,0,0,1,0,1,0,0,star ,circle,0,0,0,0,1,3,15,10,,,,,,,,,,,,,,,,,,,,,,,,,,,,,,,,,,,,,,,,64.51323201199921,64.51323201199921,64.51323201199921,64.51323201199921,64.51323201199921,64.51323201199921,64.51323201199921,64.51323201199921,64.51323201199921,64.51323201199921,l,1.3157711750009184,10,106,0,65.84794621800029,67.34979024699896,67.34979024699896,,,,,,,,,,,,,,,,,,,,,,,,,,,,,,,,,,,,,,,,,,,,,,,,,,,,,,95034,2022-09-16_12h00.42.748,vts_reward_expectancy,2022.2.4,59.86118359128259,
0,0,0,1,1,0,0,0,star,triangle,0,0,0,0,1,4,16,9,,,,,,,,,,,,,,,,,,,,,,,,,,,,,,,,,,,,,,,,67.85026614299932,67.85026614299932,67.85026614299932,67.85026614299932,67.85026614299932,67.85026614299932,67.85026614299932,67.85026614299932,67.85026614299932,67.85026614299932,a,1.674085846001617,1,107,0,69.5524385459994,71.05380220999905,,,,,,,,,,,,,,,,,,,,,,,,,,,,,,,,,,,,,,,,,,,,,,,,,,,,,,,95034,2022-09-16_12h00.42.748,vts_reward_expectancy,2022.2.4,59.86118359128259,
1,0,0,0,0,0,1,0,triangle,hexagon,0,0,0,0,1,5,17,1,,,,,,,,,,,,,,,,,,,,,,,,,,,,,,,,,,,,,,,,71.5543152199989,71.5543152199989,71.5543152199989,71.5543152199989,71.5543152199989,71.5543152199989,71.5543152199989,71.5543152199989,71.5543152199989,71.5543152199989,l,1.6824525690008159,1,108,0,73.25622302199918,74.7580604119994,,,,,,,,,,,,,,,,,,,,,,,,,,,,,,,,,,,,,,,,,,,,,,,,,,,,,,,95034,2022-09-16_12h00.42.748,vts_reward_expectancy,2022.2.4,59.86118359128259,
0,0,1,0,1,0,0,0,hexagon,triangle,0,0,0,0,1,6,18,6,,,,,,,,,,,,,,,,,,,,,,,,,,,,,,,,,,,,,,,,75.25851608099947,75.25851608099947,75.25851608099947,75.25851608099947,75.25851608099947,75.25851608099947,75.25851608099947,75.25851608099947,75.25851608099947,75.25851608099947,a,2.05205008700068,1,109,0,77.32742050599882,78.82904416199926,,,,,,,,,,,,,,,,,,,,,,,,,,,,,,,,,,,,,,,,,,,,,,,,,,,,,,,95034,2022-09-16_12h00.42.748,vts_reward_expectancy,2022.2.4,59.86118359128259,
0,1,0,0,0,0,1,0,circle,hexagon,0,0,0,0,1,7,19,4,,,,,,,,,,,,,,,,,,,,,,,,,,,,,,,,,,,,,,,,79.32950341799915,79.32950341799915,79.32950341799915,79.32950341799915,79.32950341799915,79.32950341799915,79.32950341799915,79.32950341799915,79.32950341799915,79.32950341799915,l,0.8270006660004583,10,119,0,80.18079395899986,81.68222349200005,,,,,,,,,,,,,,,,,,,,,,,,,,,,,,,,,,,,,,,,,,,,,,,,,,,,,,,95034,2022-09-16_12h00.42.748,vts_reward_expectancy,2022.2.4,59.86118359128259,
0,1,0,0,1,0,0,0,circle,triangle,0,0,0,0,1,8,20,3,,,,,,,,,,,,,,,,,,,,,,,,,,,,,,,,,,,,,,,,82.18300295599875,82.18300295599875,82.18300295599875,82.18300295599875,82.18300295599875,82.18300295599875,82.18300295599875,82.18300295599875,82.18300295599875,82.18300295599875,l,0.8858859540014237,10,129,0,83.10025118299927,84.60205521500029,,,,,,,,,,,,,,,,,,,,,,,,,,,,,,,,,,,,,,,,,,,,,,,,,,,,,,,95034,2022-09-16_12h00.42.748,vts_reward_expectancy,2022.2.4,59.86118359128259,
0,0,0,1,0,0,1,0,star,hexagon,0,0,0,0,1,9,21,11,,,,,,,,,,,,,,,,,,,,,,,,,,,,,,,,,,,,,,,,85.10256613999991,85.10256613999991,85.10256613999991,85.10256613999991,85.10256613999991,85.10256613999991,85.10256613999991,85.10256613999991,85.10256613999991,85.10256613999991,a,1.182059268001467,1,130,0,86.30413891900025,87.80564529399999,,,,,,,,,,,,,,,,,,,,,,,,,,,,,,,,,,,,,,,,,,,,,,,,,,,,,,,95034,2022-09-16_12h00.42.748,vts_reward_expectancy,2022.2.4,59.86118359128259,
1,0,0,0,0,1,0,0,triangle,circle,0,0,0,0,1,10,22,0,,,,,,,,,,,,,,,,,,,,,,,,,,,,,,,,,,,,,,,,88.30629782600045,88.30629782600045,88.30629782600045,88.30629782600045,88.30629782600045,88.30629782600045,88.30629782600045,88.30629782600045,88.30629782600045,88.30629782600045,a,0.8182241790000262,10,140,0,89.15697327499947,90.658820921999,,,,,,,,,,,,,,,,,,,,,,,,,,,,,,,,,,,,,,,,,,,,,,,,,,,,,,,95034,2022-09-16_12h00.42.748,vts_reward_expectancy,2022.2.4,59.86118359128259,
0,1,0,0,0,0,0,1,circle,star,0,0,0,0,1,11,23,5,,,,,,,,,,,,,,,,,,,,,,,,,,,,,,,,,,,,,,,,91.15912951599967,91.15912951599967,91.15912951599967,91.15912951599967,91.15912951599967,91.15912951599967,91.15912951599967,91.15912951599967,91.15912951599967,91.15912951599967,l,0.7349789190011506,10,150,0,91.92672330799905,93.42841191699881,,,,,,,,,,,,,,,,,,,,,,,,,,,,,,,,,,,,,,,,,,,,,,,,,,,,,,,95034,2022-09-16_12h00.42.748,vts_reward_expectancy,2022.2.4,59.86118359128259,
0,0,1,0,0,1,0,0,hexagon,circle,0,0,0,0,2,0,24,7,,,,,,,,,,,,,,,,,,,,,,,,,,,,,,,,,,,,,,,,93.9289281729998,93.9289281729998,93.9289281729998,93.9289281729998,93.9289281729998,93.9289281729998,93.9289281729998,93.9289281729998,93.9289281729998,93.9289281729998,a,1.7636614910006756,10,160,0,95.71418526599882,97.21609874999922,,,,,,,,,,,,,,,,,,,,,,,,,,,,,,,,,,,,,,,,,,,,,,,,,,,,,,,95034,2022-09-16_12h00.42.748,vts_reward_expectancy,2022.2.4,59.86118359128259,
1,0,0,0,0,0,0,1,triangle,star,0,0,0,0,2,1,25,2,,,,,,,,,,,,,,,,,,,,,,,,,,,,,,,,,,,,,,,,97.71634321700003,97.71634321700003,97.71634321700003,97.71634321700003,97.71634321700003,97.71634321700003,97.71634321700003,97.71634321700003,97.71634321700003,97.71634321700003,a,1.2322395690007397,10,170,0,98.96779610199883,100.46952320399942,,,,,,,,,,,,,,,,,,,,,,,,,,,,,,,,,,,,,,,,,,,,,,,,,,,,,,,95034,2022-09-16_12h00.42.748,vts_reward_expectancy,2022.2.4,59.86118359128259,
0,1,0,0,0,0,1,0,circle,hexagon,0,0,0,0,2,2,26,4,,,,,,,,,,,,,,,,,,,,,,,,,,,,,,,,,,,,,,,,100.97006064099878,100.97006064099878,100.97006064099878,100.97006064099878,100.97006064099878,100.97006064099878,100.97006064099878,100.97006064099878,100.97006064099878,100.97006064099878,l,0.8844173249999585,1,171,0,101.8708891490005,103.37259727200035,,,,,,,,,,,,,,,,,,,,,,,,,,,,,,,,,,,,,,,,,,,,,,,,,,,,,,,95034,2022-09-16_12h00.42.748,vts_reward_expectancy,2022.2.4,59.86118359128259,
0,1,0,0,0,0,0,1,circle,star,0,0,0,0,2,3,27,5,,,,,,,,,,,,,,,,,,,,,,,,,,,,,,,,,,,,,,,,103.87323184599882,103.87323184599882,103.87323184599882,103.87323184599882,103.87323184599882,103.87323184599882,103.87323184599882,103.87323184599882,103.87323184599882,103.87323184599882,l,1.452448138001273,1,172,0,105.3581651179993,106.85984600899974,,,,,,,,,,,,,,,,,,,,,,,,,,,,,,,,,,,,,,,,,,,,,,,,,,,,,,,95034,2022-09-16_12h00.42.748,vts_reward_expectancy,2022.2.4,59.86118359128259,
0,1,0,0,1,0,0,0,circle,triangle,0,0,0,0,2,4,28,3,,,,,,,,,,,,,,,,,,,,,,,,,,,,,,,,,,,,,,,,107.36049477899905,107.36049477899905,107.36049477899905,107.36049477899905,107.36049477899905,107.36049477899905,107.36049477899905,107.36049477899905,107.36049477899905,107.36049477899905,l,0.9885085730002174,10,182,0,108.3783348399993,109.87987208300001,,,,,,,,,,,,,,,,,,,,,,,,,,,,,,,,,,,,,,,,,,,,,,,,,,,,,,,95034,2022-09-16_12h00.42.748,vts_reward_expectancy,2022.2.4,59.86118359128259,
0,0,0,1,0,0,1,0,star,hexagon,0,0,0,0,2,5,29,11,,,,,,,,,,,,,,,,,,,,,,,,,,,,,,,,,,,,,,,,110.38046540699906,110.38046540699906,110.38046540699906,110.38046540699906,110.38046540699906,110.38046540699906,110.38046540699906,110.38046540699906,110.38046540699906,110.38046540699906,a,1.0326350979994459,1,183,0,111.43168970899933,112.93332761800048,112.93332761800048,,,,,,,,,,,,,,,,,,,,,,,,,,,,,,,,,,,,,,,,,,,,,,,,,,,,,,95034,2022-09-16_12h00.42.748,vts_reward_expectancy,2022.2.4,59.86118359128259,
0,0,0,1,0,1,0,0,star ,circle,0,0,0,0,2,6,30,10,,,,,,,,,,,,,,,,,,,,,,,,,,,,,,,,,,,,,,,,113.43382648599982,113.43382648599982,113.43382648599982,113.43382648599982,113.43382648599982,113.43382648599982,113.43382648599982,113.43382648599982,113.43382648599982,113.43382648599982,l,1.4357900039995002,1,184,0,114.90222584399999,116.40374236099888,,,,,,,,,,,,,,,,,,,,,,,,,,,,,,,,,,,,,,,,,,,,,,,,,,,,,,,95034,2022-09-16_12h00.42.748,vts_reward_expectancy,2022.2.4,59.86118359128259,
0,0,1,0,1,0,0,0,hexagon,triangle,0,0,0,0,2,7,31,6,,,,,,,,,,,,,,,,,,,,,,,,,,,,,,,,,,,,,,,,116.90444167699934,116.90444167699934,116.90444167699934,116.90444167699934,116.90444167699934,116.90444167699934,116.90444167699934,116.90444167699934,116.90444167699934,116.90444167699934,a,1.532621595000819,10,194,0,118.45606734399917,119.95777358099986,,,,,,,,,,,,,,,,,,,,,,,,,,,,,,,,,,,,,,,,,,,,,,,,,,,,,,,95034,2022-09-16_12h00.42.748,vts_reward_expectancy,2022.2.4,59.86118359128259,
0,0,0,1,1,0,0,0,star,triangle,0,0,0,0,2,8,32,9,,,,,,,,,,,,,,,,,,,,,,,,,,,,,,,,,,,,,,,,120.45833389299878,120.45833389299878,120.45833389299878,120.45833389299878,120.45833389299878,120.45833389299878,120.45833389299878,120.45833389299878,120.45833389299878,120.45833389299878,a,1.7940139920010552,1,195,0,122.27697478200025,123.77859822999926,,,,,,,,,,,,,,,,,,,,,,,,,,,,,,,,,,,,,,,,,,,,,,,,,,,,,,,95034,2022-09-16_12h00.42.748,vts_reward_expectancy,2022.2.4,59.86118359128259,
0,0,1,0,0,0,0,1,hexagon,star,0,0,0,0,2,9,33,8,,,,,,,,,,,,,,,,,,,,,,,,,,,,,,,,,,,,,,,,124.27944717900027,124.27944717900027,124.27944717900027,124.27944717900027,124.27944717900027,124.27944717900027,124.27944717900027,124.27944717900027,124.27944717900027,124.27944717900027,a,1.525492196002233,1,196,0,125.83082210599969,127.33244525100054,,,,,,,,,,,,,,,,,,,,,,,,,,,,,,,,,,,,,,,,,,,,,,,,,,,,,,,95034,2022-09-16_12h00.42.748,vts_reward_expectancy,2022.2.4,59.86118359128259,
1,0,0,0,0,0,1,0,triangle,hexagon,0,0,0,0,2,10,34,1,,,,,,,,,,,,,,,,,,,,,,,,,,,,,,,,,,,,,,,,127.83291585100051,127.83291585100051,127.83291585100051,127.83291585100051,127.83291585100051,127.83291585100051,127.83291585100051,127.83291585100051,127.83291585100051,127.83291585100051,l,1.101613801001804,10,206,0,128.9511466570002,130.45254764399942,,,,,,,,,,,,,,,,,,,,,,,,,,,,,,,,,,,,,,,,,,,,,,,,,,,,,,,95034,2022-09-16_12h00.42.748,vts_reward_expectancy,2022.2.4,59.86118359128259,
1,0,0,0,0,1,0,0,triangle,circle,0,0,0,0,2,11,35,0,,,,,,,,,,,,,,,,,,,,,,,,,,,,,,,,,,,,,,,,130.9530833209992,130.9530833209992,130.9530833209992,130.9530833209992,130.9530833209992,130.9530833209992,130.9530833209992,130.9530833209992,130.9530833209992,130.9530833209992,a,1.4360421400015184,10,216,0,132.42129346199908,133.9231112389989,,,,,,,,,,,,,,,,,,,,,,,,,,,,,,,,,,,,,,,,,,,,,,,,,,,,,,,95034,2022-09-16_12h00.42.748,vts_reward_expectancy,2022.2.4,59.86118359128259,
1,0,0,0,0,1,0,0,triangle,circle,1,0,1,0,0,0,0,0,,,,,,,,,,,,,,,,,,,,,,,,,,,,,,,,,,,,,,,,136.04770280899902,136.04770280899902,136.04770280899902,136.04770280899902,136.04770280899902,136.04770280899902,136.04770280899902,136.04770280899902,136.04770280899902,136.04770280899902,a,2.181372177999947,10,226,1,138.26113887199972,139.7629599009997,,,,,,,,,,,,,,,,,,,,,,,,,,,,,,,,,,,,,,,,,,,,,,,,,,,,,,,95034,2022-09-16_12h00.42.748,vts_reward_expectancy,2022.2.4,59.86118359128259,
1,0,0,0,0,0,0,1,triangle,star,1,0,1,0,0,1,1,2,,,,,,,,,,,,,,,,,,,,,,,,,,,,,,,,,,,,,,,,140.26333199500004,140.26333199500004,140.26333199500004,140.26333199500004,140.26333199500004,140.26333199500004,140.26333199500004,140.26333199500004,140.26333199500004,140.26333199500004,l,1.1902417090004747,1,227,1,141.4814437699988,142.98347763600032,,,,,,,,,,,,,,,,,,,,,,,,,,,,,,,,,,,,,,,,,,,,,,,,,,,,,,,95034,2022-09-16_12h00.42.748,vts_reward_expectancy,2022.2.4,59.86118359128259,
0,0,1,0,0,1,0,0,hexagon,circle,1,0,1,0,0,2,2,7,,,,,,,,,,,,,,,,,,,,,,,,,,,,,,,,,,,,,,,,143.4840116359992,143.4840116359992,143.4840116359992,143.4840116359992,143.4840116359992,143.4840116359992,143.4840116359992,143.4840116359992,143.4840116359992,143.4840116359992,a,1.9039629100007005,10,237,1,145.41923309899903,146.92072029599876,,,,,,,,,,,,,,,,,,,,,,,,,,,,,,,,,,,,,,,,,,,,,,,,,,,,,,,95034,2022-09-16_12h00.42.748,vts_reward_expectancy,2022.2.4,59.86118359128259,
1,0,0,0,0,0,1,0,triangle,hexagon,1,0,1,0,0,3,3,1,,,,,,,,,,,,,,,,,,,,,,,,,,,,,,,,,,,,,,,,147.4212528400003,147.4212528400003,147.4212528400003,147.4212528400003,147.4212528400003,147.4212528400003,147.4212528400003,147.4212528400003,147.4212528400003,147.4212528400003,l,1.2403987600009714,10,247,1,148.68950717799999,150.1911487109992,,,,,,,,,,,,,,,,,,,,,,,,,,,,,,,,,,,,,,,,,,,,,,,,,,,,,,,95034,2022-09-16_12h00.42.748,vts_reward_expectancy,2022.2.4,59.86118359128259,
0,1,0,0,0,0,1,0,circle,hexagon,1,0,1,0,0,4,4,4,,,,,,,,,,,,,,,,,,,,,,,,,,,,,,,,,,,,,,,,150.69155213900012,150.69155213900012,150.69155213900012,150.69155213900012,150.69155213900012,150.69155213900012,150.69155213900012,150.69155213900012,150.69155213900012,150.69155213900012,l,2.5705614849994163,1,248,1,153.2942886159999,154.79605024800003,,,,,,,,,,,,,,,,,,,,,,,,,,,,,,,,,,,,,,,,,,,,,,,,,,,,,,,95034,2022-09-16_12h00.42.748,vts_reward_expectancy,2022.2.4,59.86118359128259,
0,0,0,1,0,0,1,0,star,hexagon,1,0,1,0,0,5,5,11,,,,,,,,,,,,,,,,,,,,,,,,,,,,,,,,,,,,,,,,155.29663840099965,155.29663840099965,155.29663840099965,155.29663840099965,155.29663840099965,155.29663840099965,155.29663840099965,155.29663840099965,155.29663840099965,155.29663840099965,a,1.1079326460003358,1,249,1,156.43122882199896,157.93289806999928,,,,,,,,,,,,,,,,,,,,,,,,,,,,,,,,,,,,,,,,,,,,,,,,,,,,,,,95034,2022-09-16_12h00.42.748,vts_reward_expectancy,2022.2.4,59.86118359128259,
0,1,0,0,0,0,0,1,circle,star,1,0,1,0,0,6,6,5,,,,,,,,,,,,,,,,,,,,,,,,,,,,,,,,,,,,,,,,158.43387624000025,158.43387624000025,158.43387624000025,158.43387624000025,158.43387624000025,158.43387624000025,158.43387624000025,158.43387624000025,158.43387624000025,158.43387624000025,a,1.2685348939994583,1,250,1,159.7348435719996,161.23653344599916,,,,,,,,,,,,,,,,,,,,,,,,,,,,,,,,,,,,,,,,,,,,,,,,,,,,,,,95034,2022-09-16_12h00.42.748,vts_reward_expectancy,2022.2.4,59.86118359128259,
0,0,0,1,0,1,0,0,star ,circle,1,0,1,0,0,7,7,10,,,,,,,,,,,,,,,,,,,,,,,,,,,,,,,,,,,,,,,,161.73707774300055,161.73707774300055,161.73707774300055,161.73707774300055,161.73707774300055,161.73707774300055,161.73707774300055,161.73707774300055,161.73707774300055,161.73707774300055,a,1.0443137240017677,1,251,1,162.80499020000025,164.30664187799994,,,,,,,,,,,,,,,,,,,,,,,,,,,,,,,,,,,,,,,,,,,,,,,,,,,,,,,95034,2022-09-16_12h00.42.748,vts_reward_expectancy,2022.2.4,59.86118359128259,
0,0,1,0,0,0,0,1,hexagon,star,1,0,1,0,0,8,8,8,,,,,,,,,,,,,,,,,,,,,,,,,,,,,,,,,,,,,,,,164.80718285699913,164.80718285699913,164.80718285699913,164.80718285699913,164.80718285699913,164.80718285699913,164.80718285699913,164.80718285699913,164.80718285699913,164.80718285699913,l,1.9741838870013453,1,252,1,166.80954553499942,168.3112943670003,,,,,,,,,,,,,,,,,,,,,,,,,,,,,,,,,,,,,,,,,,,,,,,,,,,,,,,95034,2022-09-16_12h00.42.748,vts_reward_expectancy,2022.2.4,59.86118359128259,
0,1,0,0,1,0,0,0,circle,triangle,1,0,1,0,0,9,9,3,,,,,,,,,,,,,,,,,,,,,,,,,,,,,,,,,,,,,,,,168.81154478999997,168.81154478999997,168.81154478999997,168.81154478999997,168.81154478999997,168.81154478999997,168.81154478999997,168.81154478999997,168.81154478999997,168.81154478999997,l,0.9452747300001647,1,253,1,169.77923091899902,171.2811049060001,,,,,,,,,,,,,,,,,,,,,,,,,,,,,,,,,,,,,,,,,,,,,,,,,,,,,,,95034,2022-09-16_12h00.42.748,vts_reward_expectancy,2022.2.4,59.86118359128259,
0,0,0,1,1,0,0,0,star,triangle,1,0,1,0,0,10,10,9,,,,,,,,,,,,,,,,,,,,,,,,,,,,,,,,,,,,,,,,171.78153241099972,171.78153241099972,171.78153241099972,171.78153241099972,171.78153241099972,171.78153241099972,171.78153241099972,171.78153241099972,171.78153241099972,171.78153241099972,a,1.3355392510020465,10,263,1,173.1496908400004,174.65136676200018,,,,,,,,,,,,,,,,,,,,,,,,,,,,,,,,,,,,,,,,,,,,,,,,,,,,,,,95034,2022-09-16_12h00.42.748,vts_reward_expectancy,2022.2.4,59.86118359128259,
0,0,1,0,1,0,0,0,hexagon,triangle,1,0,1,0,0,11,11,6,,,,,,,,,,,,,,,,,,,,,,,,,,,,,,,,,,,,,,,,175.15191422499993,175.15191422499993,175.15191422499993,175.15191422499993,175.15191422499993,175.15191422499993,175.15191422499993,175.15191422499993,175.15191422499993,175.15191422499993,a,1.0284946670017234,1,264,1,176.20295595599964,177.70468300799985,,,,,,,,,,,,,,,,,,,,,,,,,,,,,,,,,,,,,,,,,,,,,,,,,,,,,,,95034,2022-09-16_12h00.42.748,vts_reward_expectancy,2022.2.4,59.86118359128259,
1,0,0,0,0,1,0,0,triangle,circle,1,0,1,0,1,0,12,0,,,,,,,,,,,,,,,,,,,,,,,,,,,,,,,,,,,,,,,,178.2051371839989,178.2051371839989,178.2051371839989,178.2051371839989,178.2051371839989,178.2051371839989,178.2051371839989,178.2051371839989,178.2051371839989,178.2051371839989,l,2.3031436710007256,1,265,1,180.5396146969997,182.0430547729993,,,,,,,,,,,,,,,,,,,,,,,,,,,,,,,,,,,,,,,,,,,,,,,,,,,,,,,95034,2022-09-16_12h00.42.748,vts_reward_expectancy,2022.2.4,59.86118359128259,
0,1,0,0,0,0,1,0,circle,hexagon,1,0,1,0,1,1,13,4,,,,,,,,,,,,,,,,,,,,,,,,,,,,,,,,,,,,,,,,182.54350601899932,182.54350601899932,182.54350601899932,182.54350601899932,182.54350601899932,182.54350601899932,182.54350601899932,182.54350601899932,182.54350601899932,182.54350601899932,l,1.0131975800013606,1,266,1,183.57816702499986,185.07953706499939,,,,,,,,,,,,,,,,,,,,,,,,,,,,,,,,,,,,,,,,,,,,,,,,,,,,,,,95034,2022-09-16_12h00.42.748,vts_reward_expectancy,2022.2.4,59.86118359128259,
0,0,1,0,0,1,0,0,hexagon,circle,1,0,1,0,1,2,14,7,,,,,,,,,,,,,,,,,,,,,,,,,,,,,,,,,,,,,,,,185.58041824499924,185.58041824499924,185.58041824499924,185.58041824499924,185.58041824499924,185.58041824499924,185.58041824499924,185.58041824499924,185.58041824499924,185.58041824499924,a,10.856278277000456,10,276,1,196.45862580799985,197.96047423599884,,,,,,,,,,,,,,,,,,,,,,,,,,,,,,,,,,,,,,,,,,,,,,,,,,,,,,,95034,2022-09-16_12h00.42.748,vts_reward_expectancy,2022.2.4,59.86118359128259,
0,1,0,0,0,0,0,1,circle,star,1,0,1,0,1,3,15,5,,,,,,,,,,,,,,,,,,,,,,,,,,,,,,,,,,,,,,,,198.46082331300022,198.46082331300022,198.46082331300022,198.46082331300022,198.46082331300022,198.46082331300022,198.46082331300022,198.46082331300022,198.46082331300022,198.46082331300022,l,0.912182425001447,1,277,1,199.39529689299889,200.89690055699975,,,,,,,,,,,,,,,,,,,,,,,,,,,,,,,,,,,,,,,,,,,,,,,,,,,,,,,95034,2022-09-16_12h00.42.748,vts_reward_expectancy,2022.2.4,59.86118359128259,
0,0,0,1,0,0,1,0,star,hexagon,1,0,1,0,1,4,16,11,,,,,,,,,,,,,,,,,,,,,,,,,,,,,,,,,,,,,,,,201.39754306599934,201.39754306599934,201.39754306599934,201.39754306599934,201.39754306599934,201.39754306599934,201.39754306599934,201.39754306599934,201.39754306599934,201.39754306599934,l,1.2154946600003314,10,287,1,202.63240848199894,204.13391854899965,,,,,,,,,,,,,,,,,,,,,,,,,,,,,,,,,,,,,,,,,,,,,,,,,,,,,,,95034,2022-09-16_12h00.42.748,vts_reward_expectancy,2022.2.4,59.86118359128259,
1,0,0,0,0,0,0,1,triangle,star,1,0,1,0,1,5,17,2,,,,,,,,,,,,,,,,,,,,,,,,,,,,,,,,,,,,,,,,204.6345575989999,204.6345575989999,204.6345575989999,204.6345575989999,204.6345575989999,204.6345575989999,204.6345575989999,204.6345575989999,204.6345575989999,204.6345575989999,a,1.2359126400006062,1,288,1,205.9024349499996,207.40404589699938,,,,,,,,,,,,,,,,,,,,,,,,,,,,,,,,,,,,,,,,,,,,,,,,,,,,,,,95034,2022-09-16_12h00.42.748,vts_reward_expectancy,2022.2.4,59.86118359128259,
0,0,1,0,1,0,0,0,hexagon,triangle,1,0,1,0,1,6,18,6,,,,,,,,,,,,,,,,,,,,,,,,,,,,,,,,,,,,,,,,207.9046350209992,207.9046350209992,207.9046350209992,207.9046350209992,207.9046350209992,207.9046350209992,207.9046350209992,207.9046350209992,207.9046350209992,207.9046350209992,l,5.045237451000503,10,298,1,212.97691045300053,214.47853278100047,,,,,,,,,,,,,,,,,,,,,,,,,,,,,,,,,,,,,,,,,,,,,,,,,,,,,,,95034,2022-09-16_12h00.42.748,vts_reward_expectancy,2022.2.4,59.86118359128259,
1,0,0,0,0,0,1,0,triangle,hexagon,1,0,1,0,1,7,19,1,,,,,,,,,,,,,,,,,,,,,,,,,,,,,,,,,,,,,,,,214.97953904399947,214.97953904399947,214.97953904399947,214.97953904399947,214.97953904399947,214.97953904399947,214.97953904399947,214.97953904399947,214.97953904399947,214.97953904399947,a,1.3615146040010586,10,308,1,216.3641806020005,217.86564824599918,,,,,,,,,,,,,,,,,,,,,,,,,,,,,,,,,,,,,,,,,,,,,,,,,,,,,,,95034,2022-09-16_12h00.42.748,vts_reward_expectancy,2022.2.4,59.86118359128259,
0,0,0,1,1,0,0,0,star,triangle,1,0,1,0,1,8,20,9,,,,,,,,,,,,,,,,,,,,,,,,,,,,,,,,,,,,,,,,218.36626579599942,218.36626579599942,218.36626579599942,218.36626579599942,218.36626579599942,218.36626579599942,218.36626579599942,218.36626579599942,218.36626579599942,218.36626579599942,a,1.3104089860007662,1,309,1,219.70100096399983,221.20264413899895,,,,,,,,,,,,,,,,,,,,,,,,,,,,,,,,,,,,,,,,,,,,,,,,,,,,,,,95034,2022-09-16_12h00.42.748,vts_reward_expectancy,2022.2.4,59.86118359128259,
0,0,0,1,0,1,0,0,star ,circle,1,0,1,0,1,9,21,10,,,,,,,,,,,,,,,,,,,,,,,,,,,,,,,,,,,,,,,,221.70306087399877,221.70306087399877,221.70306087399877,221.70306087399877,221.70306087399877,221.70306087399877,221.70306087399877,221.70306087399877,221.70306087399877,221.70306087399877,l,4.326893122000911,10,319,1,226.0579725819989,227.55979688099978,,,,,,,,,,,,,,,,,,,,,,,,,,,,,,,,,,,,,,,,,,,,,,,,,,,,,,,95034,2022-09-16_12h00.42.748,vts_reward_expectancy,2022.2.4,59.86118359128259,
0,1,0,0,1,0,0,0,circle,triangle,1,0,1,0,1,10,22,3,,,,,,,,,,,,,,,,,,,,,,,,,,,,,,,,,,,,,,,,228.06050136799968,228.06050136799968,228.06050136799968,228.06050136799968,228.06050136799968,228.06050136799968,228.06050136799968,228.06050136799968,228.06050136799968,228.06050136799968,a,0.9517941480007721,1,320,1,229.04497970299963,230.5463806379994,,,,,,,,,,,,,,,,,,,,,,,,,,,,,,,,,,,,,,,,,,,,,,,,,,,,,,,95034,2022-09-16_12h00.42.748,vts_reward_expectancy,2022.2.4,59.86118359128259,
0,0,1,0,0,0,0,1,hexagon,star,1,0,1,0,1,11,23,8,,,,,,,,,,,,,,,,,,,,,,,,,,,,,,,,,,,,,,,,231.04706801599968,231.04706801599968,231.04706801599968,231.04706801599968,231.04706801599968,231.04706801599968,231.04706801599968,231.04706801599968,231.04706801599968,231.04706801599968,a,1.5100960140007373,10,330,1,232.58184080499996,234.083567235999,,,,,,,,,,,,,,,,,,,,,,,,,,,,,,,,,,,,,,,,,,,,,,,,,,,,,,,95034,2022-09-16_12h00.42.748,vts_reward_expectancy,2022.2.4,59.86118359128259,
0,0,1,0,0,1,0,0,hexagon,circle,1,0,1,0,2,0,24,7,,,,,,,,,,,,,,,,,,,,,,,,,,,,,,,,,,,,,,,,234.58397654200053,234.58397654200053,234.58397654200053,234.58397654200053,234.58397654200053,234.58397654200053,234.58397654200053,234.58397654200053,234.58397654200053,234.58397654200053,l,3.9098000320009305,1,331,1,238.52175796099982,240.02349965099893,,,,,,,,,,,,,,,,,,,,,,,,,,,,,,,,,,,,,,,,,,,,,,,,,,,,,,,95034,2022-09-16_12h00.42.748,vts_reward_expectancy,2022.2.4,59.86118359128259,
1,0,0,0,0,0,0,1,triangle,star,1,0,1,0,2,1,25,2,,,,,,,,,,,,,,,,,,,,,,,,,,,,,,,,,,,,,,,,240.5239621239998,240.5239621239998,240.5239621239998,240.5239621239998,240.5239621239998,240.5239621239998,240.5239621239998,240.5239621239998,240.5239621239998,240.5239621239998,l,3.27209332700113,1,332,1,243.82760032199985,245.32935899899894,,,,,,,,,,,,,,,,,,,,,,,,,,,,,,,,,,,,,,,,,,,,,,,,,,,,,,,95034,2022-09-16_12h00.42.748,vts_reward_expectancy,2022.2.4,59.86118359128259,
1,0,0,0,0,1,0,0,triangle,circle,1,0,1,0,2,2,26,0,,,,,,,,,,,,,,,,,,,,,,,,,,,,,,,,,,,,,,,,245.82998732799933,245.82998732799933,245.82998732799933,245.82998732799933,245.82998732799933,245.82998732799933,245.82998732799933,245.82998732799933,245.82998732799933,245.82998732799933,l,3.3673801890017785,10,342,1,249.21718843599956,250.71860776299945,,,,,,,,,,,,,,,,,,,,,,,,,,,,,,,,,,,,,,,,,,,,,,,,,,,,,,,95034,2022-09-16_12h00.42.748,vts_reward_expectancy,2022.2.4,59.86118359128259,
0,0,0,1,0,0,1,0,star,hexagon,1,0,1,0,2,3,27,11,,,,,,,,,,,,,,,,,,,,,,,,,,,,,,,,,,,,,,,,251.21921957300037,251.21921957300037,251.21921957300037,251.21921957300037,251.21921957300037,251.21921957300037,251.21921957300037,251.21921957300037,251.21921957300037,251.21921957300037,a,6.091561705001368,1,343,1,257.3426482239993,258.8442373329999,,,,,,,,,,,,,,,,,,,,,,,,,,,,,,,,,,,,,,,,,,,,,,,,,,,,,,,95034,2022-09-16_12h00.42.748,vts_reward_expectancy,2022.2.4,59.86118359128259,
0,1,0,0,0,0,1,0,circle,hexagon,1,0,1,0,2,4,28,4,,,,,,,,,,,,,,,,,,,,,,,,,,,,,,,,,,,,,,,,259.34474136800054,259.34474136800054,259.34474136800054,259.34474136800054,259.34474136800054,259.34474136800054,259.34474136800054,259.34474136800054,259.34474136800054,259.34474136800054,l,1.1880704130016966,1,344,1,260.56278800200016,262.06450192599914,,,,,,,,,,,,,,,,,,,,,,,,,,,,,,,,,,,,,,,,,,,,,,,,,,,,,,,95034,2022-09-16_12h00.42.748,vts_reward_expectancy,2022.2.4,59.86118359128259,
0,0,1,0,1,0,0,0,hexagon,triangle,1,0,1,0,2,5,29,6,,,,,,,,,,,,,,,,,,,,,,,,,,,,,,,,,,,,,,,,262.5649848180001,262.5649848180001,262.5649848180001,262.5649848180001,262.5649848180001,262.5649848180001,262.5649848180001,262.5649848180001,262.5649848180001,262.5649848180001,a,8.783721608000633,1,345,1,271.3746957989988,272.8764961300003,,,,,,,,,,,,,,,,,,,,,,,,,,,,,,,,,,,,,,,,,,,,,,,,,,,,,,,95034,2022-09-16_12h00.42.748,vts_reward_expectancy,2022.2.4,59.86118359128259,
0,0,1,0,0,0,0,1,hexagon,star,1,0,1,0,2,6,30,8,,,,,,,,,,,,,,,,,,,,,,,,,,,,,,,,,,,,,,,,273.3769609230003,273.3769609230003,273.3769609230003,273.3769609230003,273.3769609230003,273.3769609230003,273.3769609230003,273.3769609230003,273.3769609230003,273.3769609230003,a,1.2195636619999277,10,355,1,274.6282190889997,276.13010403599947,,,,,,,,,,,,,,,,,,,,,,,,,,,,,,,,,,,,,,,,,,,,,,,,,,,,,,,95034,2022-09-16_12h00.42.748,vts_reward_expectancy,2022.2.4,59.86118359128259,
1,0,0,0,0,0,1,0,triangle,hexagon,1,0,1,0,2,7,31,1,,,,,,,,,,,,,,,,,,,,,,,,,,,,,,,,,,,,,,,,276.63073717599946,276.63073717599946,276.63073717599946,276.63073717599946,276.63073717599946,276.63073717599946,276.63073717599946,276.63073717599946,276.63073717599946,276.63073717599946,a,1.4779363079996983,1,356,1,278.13221964699915,279.63410899500013,,,,,,,,,,,,,,,,,,,,,,,,,,,,,,,,,,,,,,,,,,,,,,,,,,,,,,,95034,2022-09-16_12h00.42.748,vts_reward_expectancy,2022.2.4,59.86118359128259,
0,0,0,1,0,1,0,0,star ,circle,1,0,1,0,2,8,32,10,,,,,,,,,,,,,,,,,,,,,,,,,,,,,,,,,,,,,,,,280.13431492999916,280.13431492999916,280.13431492999916,280.13431492999916,280.13431492999916,280.13431492999916,280.13431492999916,280.13431492999916,280.13431492999916,280.13431492999916,l,8.71845271500024,1,357,1,288.8772364380002,290.379065232999,,,,,,,,,,,,,,,,,,,,,,,,,,,,,,,,,,,,,,,,,,,,,,,,,,,,,,,95034,2022-09-16_12h00.42.748,vts_reward_expectancy,2022.2.4,59.86118359128259,
0,0,0,1,1,0,0,0,star,triangle,1,0,1,0,2,9,33,9,,,,,,,,,,,,,,,,,,,,,,,,,,,,,,,,,,,,,,,,290.87943619900034,290.87943619900034,290.87943619900034,290.87943619900034,290.87943619900034,290.87943619900034,290.87943619900034,290.87943619900034,290.87943619900034,290.87943619900034,l,0.9511191290002898,10,367,1,291.84722031099955,293.34880021000026,,,,,,,,,,,,,,,,,,,,,,,,,,,,,,,,,,,,,,,,,,,,,,,,,,,,,,,95034,2022-09-16_12h00.42.748,vts_reward_expectancy,2022.2.4,59.86118359128259,
0,1,0,0,0,0,0,1,circle,star,1,0,1,0,2,10,34,5,,,,,,,,,,,,,,,,,,,,,,,,,,,,,,,,,,,,,,,,293.8493879590005,293.8493879590005,293.8493879590005,293.8493879590005,293.8493879590005,293.8493879590005,293.8493879590005,293.8493879590005,293.8493879590005,293.8493879590005,a,1.475796689001072,10,377,1,295.35100083,296.852782422,,,,,,,,,,,,,,,,,,,,,,,,,,,,,,,,,,,,,,,,,,,,,,,,,,,,,,,95034,2022-09-16_12h00.42.748,vts_reward_expectancy,2022.2.4,59.86118359128259,
0,1,0,0,1,0,0,0,circle,triangle,1,0,1,0,2,11,35,3,,,,,,,,,,,,,,,,,,,,,,,,,,,,,,,,,,,,,,,,297.3532700889991,297.3532700889991,297.3532700889991,297.3532700889991,297.3532700889991,297.3532700889991,297.3532700889991,297.3532700889991,297.3532700889991,297.3532700889991,a,2.0531587380010023,10,387,1,299.4389311719988,300.94062668900006,,,,,,,,,,,,,,,,,,,,,,,,,,,,,,,,,,,,,,,,,,,,,,,,,,,,,,,95034,2022-09-16_12h00.42.748,vts_reward_expectancy,2022.2.4,59.86118359128259,
0,1,0,0,0,0,1,0,circle,hexagon,2,0,2,0,0,0,0,4,,,,,,,,,,,,,,,,,,,,,,,,,,,,,,,,,,,,,,,,303.1502558659995,303.1502558659995,303.1502558659995,303.1502558659995,303.1502558659995,303.1502558659995,303.1502558659995,303.1502558659995,303.1502558659995,303.1502558659995,l,9.23789412000042,10,397,2,312.4203685829998,313.9215688530003,,,,,,,,,,,,,,,,,,,,,,,,,,,,,,,,,,,,,,,,,,,,,,,,,,,,,,,95034,2022-09-16_12h00.42.748,vts_reward_expectancy,2022.2.4,59.86118359128259,
0,0,1,0,1,0,0,0,hexagon,triangle,2,0,2,0,0,1,1,6,,,,,,,,,,,,,,,,,,,,,,,,,,,,,,,,,,,,,,,,314.42223107800055,314.42223107800055,314.42223107800055,314.42223107800055,314.42223107800055,314.42223107800055,314.42223107800055,314.42223107800055,314.42223107800055,314.42223107800055,a,0.8946812720005255,10,407,2,315.33982830700006,316.84146399400015,,,,,,,,,,,,,,,,,,,,,,,,,,,,,,,,,,,,,,,,,,,,,,,,,,,,,,,95034,2022-09-16_12h00.42.748,vts_reward_expectancy,2022.2.4,59.86118359128259,
0,1,0,0,0,0,0,1,circle,star,2,0,2,0,0,2,2,5,,,,,,,,,,,,,,,,,,,,,,,,,,,,,,,,,,,,,,,,317.3420823409997,317.3420823409997,317.3420823409997,317.3420823409997,317.3420823409997,317.3420823409997,317.3420823409997,317.3420823409997,317.3420823409997,317.3420823409997,a,1.1989448480017018,10,417,2,318.5601524069989,320.06176257199877,,,,,,,,,,,,,,,,,,,,,,,,,,,,,,,,,,,,,,,,,,,,,,,,,,,,,,,95034,2022-09-16_12h00.42.748,vts_reward_expectancy,2022.2.4,59.86118359128259,
1,0,0,0,0,0,1,0,triangle,hexagon,2,0,2,0,0,3,3,1,,,,,,,,,,,,,,,,,,,,,,,,,,,,,,,,,,,,,,,,320.562439243,320.562439243,320.562439243,320.562439243,320.562439243,320.562439243,320.562439243,320.562439243,320.562439243,320.562439243,l,0.8098389700007829,10,427,2,321.3967269650002,322.89837238399923,,,,,,,,,,,,,,,,,,,,,,,,,,,,,,,,,,,,,,,,,,,,,,,,,,,,,,,95034,2022-09-16_12h00.42.748,vts_reward_expectancy,2022.2.4,59.86118359128259,
1,0,0,0,0,1,0,0,triangle,circle,2,0,2,0,0,4,4,0,,,,,,,,,,,,,,,,,,,,,,,,,,,,,,,,,,,,,,,,323.39890380199904,323.39890380199904,323.39890380199904,323.39890380199904,323.39890380199904,323.39890380199904,323.39890380199904,323.39890380199904,323.39890380199904,323.39890380199904,l,1.1670579880010337,1,428,2,324.58369636099997,326.0852773080005,,,,,,,,,,,,,,,,,,,,,,,,,,,,,,,,,,,,,,,,,,,,,,,,,,,,,,,95034,2022-09-16_12h00.42.748,vts_reward_expectancy,2022.2.4,59.86118359128259,
0,0,0,1,0,1,0,0,star ,circle,2,0,2,0,0,5,5,10,,,,,,,,,,,,,,,,,,,,,,,,,,,,,,,,,,,,,,,,326.58557854599894,326.58557854599894,326.58557854599894,326.58557854599894,326.58557854599894,326.58557854599894,326.58557854599894,326.58557854599894,326.58557854599894,326.58557854599894,l,1.1473891870009538,1,429,2,327.7534901359995,329.2552481820003,,,,,,,,,,,,,,,,,,,,,,,,,,,,,,,,,,,,,,,,,,,,,,,,,,,,,,,95034,2022-09-16_12h00.42.748,vts_reward_expectancy,2022.2.4,59.86118359128259,
0,0,0,1,1,0,0,0,star,triangle,2,0,2,0,0,6,6,9,,,,,,,,,,,,,,,,,,,,,,,,,,,,,,,,,,,,,,,,329.7557605279999,329.7557605279999,329.7557605279999,329.7557605279999,329.7557605279999,329.7557605279999,329.7557605279999,329.7557605279999,329.7557605279999,329.7557605279999,a,1.6973688080015563,1,430,2,331.4743875309996,332.9758939149997,,,,,,,,,,,,,,,,,,,,,,,,,,,,,,,,,,,,,,,,,,,,,,,,,,,,,,,95034,2022-09-16_12h00.42.748,vts_reward_expectancy,2022.2.4,59.86118359128259,
1,0,0,0,0,0,0,1,triangle,star,2,0,2,0,0,7,7,2,,,,,,,,,,,,,,,,,,,,,,,,,,,,,,,,,,,,,,,,333.4765368650005,333.4765368650005,333.4765368650005,333.4765368650005,333.4765368650005,333.4765368650005,333.4765368650005,333.4765368650005,333.4765368650005,333.4765368650005,a,1.3691021200011164,10,440,2,334.8780774200004,336.37966442299876,,,,,,,,,,,,,,,,,,,,,,,,,,,,,,,,,,,,,,,,,,,,,,,,,,,,,,,95034,2022-09-16_12h00.42.748,vts_reward_expectancy,2022.2.4,59.86118359128259,
0,0,1,0,0,1,0,0,hexagon,circle,2,0,2,0,0,8,8,7,,,,,,,,,,,,,,,,,,,,,,,,,,,,,,,,,,,,,,,,336.8801056680004,336.8801056680004,336.8801056680004,336.8801056680004,336.8801056680004,336.8801056680004,336.8801056680004,336.8801056680004,336.8801056680004,336.8801056680004,a,2.028462975000366,10,450,2,338.9324939319995,340.4341939900005,,,,,,,,,,,,,,,,,,,,,,,,,,,,,,,,,,,,,,,,,,,,,,,,,,,,,,,95034,2022-09-16_12h00.42.748,vts_reward_expectancy,2022.2.4,59.86118359128259,
0,0,0,1,0,0,1,0,star,hexagon,2,0,2,0,0,9,9,11,,,,,,,,,,,,,,,,,,,,,,,,,,,,,,,,,,,,,,,,340.93468313300036,340.93468313300036,340.93468313300036,340.93468313300036,340.93468313300036,340.93468313300036,340.93468313300036,340.93468313300036,340.93468313300036,340.93468313300036,a,1.5197107160001906,1,451,2,342.48646451499917,343.9867092349996,343.9867092349996,,,,,,,,,,,,,,,,,,,,,,,,,,,,,,,,,,,,,,,,,,,,,,,,,,,,,,95034,2022-09-16_12h00.42.748,vts_reward_expectancy,2022.2.4,59.86118359128259,
0,1,0,0,1,0,0,0,circle,triangle,2,0,2,0,0,10,10,3,,,,,,,,,,,,,,,,,,,,,,,,,,,,,,,,,,,,,,,,344.488744332999,344.488744332999,344.488744332999,344.488744332999,344.488744332999,344.488744332999,344.488744332999,344.488744332999,344.488744332999,344.488744332999,l,1.804334493001079,10,461,2,346.3243065530005,347.8257213050001,,,,,,,,,,,,,,,,,,,,,,,,,,,,,,,,,,,,,,,,,,,,,,,,,,,,,,,95034,2022-09-16_12h00.42.748,vts_reward_expectancy,2022.2.4,59.86118359128259,
0,0,1,0,0,0,0,1,hexagon,star,2,0,2,0,0,11,11,8,,,,,,,,,,,,,,,,,,,,,,,,,,,,,,,,,,,,,,,,348.32644388299923,348.32644388299923,348.32644388299923,348.32644388299923,348.32644388299923,348.32644388299923,348.32644388299923,348.32644388299923,348.32644388299923,348.32644388299923,a,3.4778668630005996,1,462,2,351.83016686500014,353.3319006269994,,,,,,,,,,,,,,,,,,,,,,,,,,,,,,,,,,,,,,,,,,,,,,,,,,,,,,,95034,2022-09-16_12h00.42.748,vts_reward_expectancy,2022.2.4,59.86118359128259,
1,0,0,0,0,1,0,0,triangle,circle,2,0,2,0,1,0,12,0,,,,,,,,,,,,,,,,,,,,,,,,,,,,,,,,,,,,,,,,353.832462295999,353.832462295999,353.832462295999,353.832462295999,353.832462295999,353.832462295999,353.832462295999,353.832462295999,353.832462295999,353.832462295999,a,2.3481005220000952,10,472,2,356.20150704499974,357.7032889940001,,,,,,,,,,,,,,,,,,,,,,,,,,,,,,,,,,,,,,,,,,,,,,,,,,,,,,,95034,2022-09-16_12h00.42.748,vts_reward_expectancy,2022.2.4,59.86118359128259,
0,1,0,0,1,0,0,0,circle,triangle,2,0,2,0,1,1,13,3,,,,,,,,,,,,,,,,,,,,,,,,,,,,,,,,,,,,,,,,358.2037781380004,358.2037781380004,358.2037781380004,358.2037781380004,358.2037781380004,358.2037781380004,358.2037781380004,358.2037781380004,358.2037781380004,358.2037781380004,a,2.008769444000791,1,473,2,360.2393947620003,361.74091731299995,,,,,,,,,,,,,,,,,,,,,,,,,,,,,,,,,,,,,,,,,,,,,,,,,,,,,,,95034,2022-09-16_12h00.42.748,vts_reward_expectancy,2022.2.4,59.86118359128259,
0,0,1,0,0,0,0,1,hexagon,star,2,0,2,0,1,2,14,8,,,,,,,,,,,,,,,,,,,,,,,,,,,,,,,,,,,,,,,,362.24189685700003,362.24189685700003,362.24189685700003,362.24189685700003,362.24189685700003,362.24189685700003,362.24189685700003,362.24189685700003,362.24189685700003,362.24189685700003,l,4.188560013000824,1,474,2,366.4628470030002,367.96459260899974,,,,,,,,,,,,,,,,,,,,,,,,,,,,,,,,,,,,,,,,,,,,,,,,,,,,,,,95034,2022-09-16_12h00.42.748,vts_reward_expectancy,2022.2.4,59.86118359128259,
0,1,0,0,0,0,1,0,circle,hexagon,2,0,2,0,1,3,15,4,,,,,,,,,,,,,,,,,,,,,,,,,,,,,,,,,,,,,,,,368.46507372700034,368.46507372700034,368.46507372700034,368.46507372700034,368.46507372700034,368.46507372700034,368.46507372700034,368.46507372700034,368.46507372700034,368.46507372700034,a,1.6444075140007044,1,475,2,370.1336146779995,371.6352065659994,,,,,,,,,,,,,,,,,,,,,,,,,,,,,,,,,,,,,,,,,,,,,,,,,,,,,,,95034,2022-09-16_12h00.42.748,vts_reward_expectancy,2022.2.4,59.86118359128259,
0,0,0,1,0,0,1,0,star,hexagon,2,0,2,0,1,4,16,11,,,,,,,,,,,,,,,,,,,,,,,,,,,,,,,,,,,,,,,,372.13579306499923,372.13579306499923,372.13579306499923,372.13579306499923,372.13579306499923,372.13579306499923,372.13579306499923,372.13579306499923,372.13579306499923,372.13579306499923,a,1.5093493800013675,1,476,2,373.670831767,375.1725288870002,,,,,,,,,,,,,,,,,,,,,,,,,,,,,,,,,,,,,,,,,,,,,,,,,,,,,,,95034,2022-09-16_12h00.42.748,vts_reward_expectancy,2022.2.4,59.86118359128259,
1,0,0,0,0,0,0,1,triangle,star,2,0,2,0,1,5,17,2,,,,,,,,,,,,,,,,,,,,,,,,,,,,,,,,,,,,,,,,375.67302120899876,375.67302120899876,375.67302120899876,375.67302120899876,375.67302120899876,375.67302120899876,375.67302120899876,375.67302120899876,375.67302120899876,375.67302120899876,a,1.3076978780009085,10,486,2,377.0079032949998,378.50957158599886,,,,,,,,,,,,,,,,,,,,,,,,,,,,,,,,,,,,,,,,,,,,,,,,,,,,,,,95034,2022-09-16_12h00.42.748,vts_reward_expectancy,2022.2.4,59.86118359128259,
0,0,1,0,0,1,0,0,hexagon,circle,2,0,2,0,1,6,18,7,,,,,,,,,,,,,,,,,,,,,,,,,,,,,,,,,,,,,,,,379.009995168999,379.009995168999,379.009995168999,379.009995168999,379.009995168999,379.009995168999,379.009995168999,379.009995168999,379.009995168999,379.009995168999,l,1.4913292080018437,1,487,2,380.528272395999,382.03011941099976,,,,,,,,,,,,,,,,,,,,,,,,,,,,,,,,,,,,,,,,,,,,,,,,,,,,,,,95034,2022-09-16_12h00.42.748,vts_reward_expectancy,2022.2.4,59.86118359128259,
1,0,0,0,0,0,1,0,triangle,hexagon,2,0,2,0,1,7,19,1,,,,,,,,,,,,,,,,,,,,,,,,,,,,,,,,,,,,,,,,382.5307240559996,382.5307240559996,382.5307240559996,382.5307240559996,382.5307240559996,382.5307240559996,382.5307240559996,382.5307240559996,382.5307240559996,382.5307240559996,a,1.7777032890007831,1,488,2,384.33259714799897,385.834356465999,,,,,,,,,,,,,,,,,,,,,,,,,,,,,,,,,,,,,,,,,,,,,,,,,,,,,,,95034,2022-09-16_12h00.42.748,vts_reward_expectancy,2022.2.4,59.86118359128259,
0,0,0,1,0,1,0,0,star ,circle,2,0,2,0,1,8,20,10,,,,,,,,,,,,,,,,,,,,,,,,,,,,,,,,,,,,,,,,386.3348850250004,386.3348850250004,386.3348850250004,386.3348850250004,386.3348850250004,386.3348850250004,386.3348850250004,386.3348850250004,386.3348850250004,386.3348850250004,l,7.0940774049995525,1,489,2,393.459385578999,394.9609162729994,,,,,,,,,,,,,,,,,,,,,,,,,,,,,,,,,,,,,,,,,,,,,,,,,,,,,,,95034,2022-09-16_12h00.42.748,vts_reward_expectancy,2022.2.4,59.86118359128259,
0,0,0,1,1,0,0,0,star,triangle,2,0,2,0,1,9,21,9,,,,,,,,,,,,,,,,,,,,,,,,,,,,,,,,,,,,,,,,395.4614651289994,395.4614651289994,395.4614651289994,395.4614651289994,395.4614651289994,395.4614651289994,395.4614651289994,395.4614651289994,395.4614651289994,395.4614651289994,l,1.2156695180019597,1,490,2,396.6962467969988,398.1979117039991,,,,,,,,,,,,,,,,,,,,,,,,,,,,,,,,,,,,,,,,,,,,,,,,,,,,,,,95034,2022-09-16_12h00.42.748,vts_reward_expectancy,2022.2.4,59.86118359128259,
0,0,1,0,1,0,0,0,hexagon,triangle,2,0,2,0,1,10,22,6,,,,,,,,,,,,,,,,,,,,,,,,,,,,,,,,,,,,,,,,398.698551776999,398.698551776999,398.698551776999,398.698551776999,398.698551776999,398.698551776999,398.698551776999,398.698551776999,398.698551776999,398.698551776999,l,2.1617682070009323,10,500,2,400.8842660350001,402.38613031899877,,,,,,,,,,,,,,,,,,,,,,,,,,,,,,,,,,,,,,,,,,,,,,,,,,,,,,,95034,2022-09-16_12h00.42.748,vts_reward_expectancy,2022.2.4,59.86118359128259,
0,1,0,0,0,0,0,1,circle,star,2,0,2,0,1,11,23,5,,,,,,,,,,,,,,,,,,,,,,,,,,,,,,,,,,,,,,,,402.8863913509995,402.8863913509995,402.8863913509995,402.8863913509995,402.8863913509995,402.8863913509995,402.8863913509995,402.8863913509995,402.8863913509995,402.8863913509995,a,1.2785589020004409,1,501,2,404.1879452539997,405.6894192079999,,,,,,,,,,,,,,,,,,,,,,,,,,,,,,,,,,,,,,,,,,,,,,,,,,,,,,,95034,2022-09-16_12h00.42.748,vts_reward_expectancy,2022.2.4,59.86118359128259,
0,0,1,0,0,1,0,0,hexagon,circle,2,0,2,0,2,0,24,7,,,,,,,,,,,,,,,,,,,,,,,,,,,,,,,,,,,,,,,,406.190160311,406.190160311,406.190160311,406.190160311,406.190160311,406.190160311,406.190160311,406.190160311,406.190160311,406.190160311,a,1.6232163260010566,1,502,2,407.8418930579992,409.34351471099944,,,,,,,,,,,,,,,,,,,,,,,,,,,,,,,,,,,,,,,,,,,,,,,,,,,,,,,95034,2022-09-16_12h00.42.748,vts_reward_expectancy,2022.2.4,59.86118359128259,
0,1,0,0,0,0,1,0,circle,hexagon,2,0,2,0,2,1,25,4,,,,,,,,,,,,,,,,,,,,,,,,,,,,,,,,,,,,,,,,409.84429234900017,409.84429234900017,409.84429234900017,409.84429234900017,409.84429234900017,409.84429234900017,409.84429234900017,409.84429234900017,409.84429234900017,409.84429234900017,l,1.3440339030003088,1,503,2,411.2124033429991,412.71393596599955,,,,,,,,,,,,,,,,,,,,,,,,,,,,,,,,,,,,,,,,,,,,,,,,,,,,,,,95034,2022-09-16_12h00.42.748,vts_reward_expectancy,2022.2.4,59.86118359128259,
0,0,0,1,0,0,1,0,star,hexagon,2,0,2,0,2,2,26,11,,,,,,,,,,,,,,,,,,,,,,,,,,,,,,,,,,,,,,,,413.21448805399996,413.21448805399996,413.21448805399996,413.21448805399996,413.21448805399996,413.21448805399996,413.21448805399996,413.21448805399996,413.21448805399996,413.21448805399996,l,2.9426518130021577,10,513,2,416.18447278799977,417.68607258299926,,,,,,,,,,,,,,,,,,,,,,,,,,,,,,,,,,,,,,,,,,,,,,,,,,,,,,,95034,2022-09-16_12h00.42.748,vts_reward_expectancy,2022.2.4,59.86118359128259,
0,1,0,0,0,0,0,1,circle,star,2,0,2,0,2,3,27,5,,,,,,,,,,,,,,,,,,,,,,,,,,,,,,,,,,,,,,,,418.18692476899923,418.18692476899923,418.18692476899923,418.18692476899923,418.18692476899923,418.18692476899923,418.18692476899923,418.18692476899923,418.18692476899923,418.18692476899923,a,1.641550192001887,1,514,2,419.8550954980001,421.3567776460004,,,,,,,,,,,,,,,,,,,,,,,,,,,,,,,,,,,,,,,,,,,,,,,,,,,,,,,95034,2022-09-16_12h00.42.748,vts_reward_expectancy,2022.2.4,59.86118359128259,
0,0,1,0,0,0,0,1,hexagon,star,2,0,2,0,2,4,28,8,,,,,,,,,,,,,,,,,,,,,,,,,,,,,,,,,,,,,,,,421.85726797700045,421.85726797700045,421.85726797700045,421.85726797700045,421.85726797700045,421.85726797700045,421.85726797700045,421.85726797700045,421.85726797700045,421.85726797700045,a,1.6277970640003332,1,515,2,423.5092891259992,425.0107462199994,,,,,,,,,,,,,,,,,,,,,,,,,,,,,,,,,,,,,,,,,,,,,,,,,,,,,,,95034,2022-09-16_12h00.42.748,vts_reward_expectancy,2022.2.4,59.86118359128259,
1,0,0,0,0,1,0,0,triangle,circle,2,0,2,0,2,5,29,0,,,,,,,,,,,,,,,,,,,,,,,,,,,,,,,,,,,,,,,,425.5117015960004,425.5117015960004,425.5117015960004,425.5117015960004,425.5117015960004,425.5117015960004,425.5117015960004,425.5117015960004,425.5117015960004,425.5117015960004,a,2.9488180320004176,10,525,2,428.4813782149995,429.98316549399897,,,,,,,,,,,,,,,,,,,,,,,,,,,,,,,,,,,,,,,,,,,,,,,,,,,,,,,95034,2022-09-16_12h00.42.748,vts_reward_expectancy,2022.2.4,59.86118359128259,
0,0,0,1,0,1,0,0,star ,circle,2,0,2,0,2,6,30,10,,,,,,,,,,,,,,,,,,,,,,,,,,,,,,,,,,,,,,,,430.4835170890001,430.4835170890001,430.4835170890001,430.4835170890001,430.4835170890001,430.4835170890001,430.4835170890001,430.4835170890001,430.4835170890001,430.4835170890001,l,1.2024465780013998,1,526,2,431.7182416960004,433.21997107599964,,,,,,,,,,,,,,,,,,,,,,,,,,,,,,,,,,,,,,,,,,,,,,,,,,,,,,,95034,2022-09-16_12h00.42.748,vts_reward_expectancy,2022.2.4,59.86118359128259,
0,0,0,1,1,0,0,0,star,triangle,2,0,2,0,2,7,31,9,,,,,,,,,,,,,,,,,,,,,,,,,,,,,,,,,,,,,,,,433.72064520999993,433.72064520999993,433.72064520999993,433.72064520999993,433.72064520999993,433.72064520999993,433.72064520999993,433.72064520999993,433.72064520999993,433.72064520999993,l,3.3963951550013007,10,536,2,437.14113202299995,438.64251875899936,,,,,,,,,,,,,,,,,,,,,,,,,,,,,,,,,,,,,,,,,,,,,,,,,,,,,,,95034,2022-09-16_12h00.42.748,vts_reward_expectancy,2022.2.4,59.86118359128259,
1,0,0,0,0,0,1,0,triangle,hexagon,2,0,2,0,2,8,32,1,,,,,,,,,,,,,,,,,,,,,,,,,,,,,,,,,,,,,,,,439.14307594899947,439.14307594899947,439.14307594899947,439.14307594899947,439.14307594899947,439.14307594899947,439.14307594899947,439.14307594899947,439.14307594899947,439.14307594899947,a,1.5189621940007783,10,546,2,440.67808495399913,442.17996855300044,442.17996855300044,,,,,,,,,,,,,,,,,,,,,,,,,,,,,,,,,,,,,,,,,,,,,,,,,,,,,,95034,2022-09-16_12h00.42.748,vts_reward_expectancy,2022.2.4,59.86118359128259,
0,1,0,0,1,0,0,0,circle,triangle,2,0,2,0,2,9,33,3,,,,,,,,,,,,,,,,,,,,,,,,,,,,,,,,,,,,,,,,442.6806272169997,442.6806272169997,442.6806272169997,442.6806272169997,442.6806272169997,442.6806272169997,442.6806272169997,442.6806272169997,442.6806272169997,442.6806272169997,l,0.701687546001267,10,556,2,443.41447055999924,444.916027792,,,,,,,,,,,,,,,,,,,,,,,,,,,,,,,,,,,,,,,,,,,,,,,,,,,,,,,95034,2022-09-16_12h00.42.748,vts_reward_expectancy,2022.2.4,59.86118359128259,
1,0,0,0,0,0,0,1,triangle,star,2,0,2,0,2,10,34,2,,,,,,,,,,,,,,,,,,,,,,,,,,,,,,,,,,,,,,,,445.41675926800053,445.41675926800053,445.41675926800053,445.41675926800053,445.41675926800053,445.41675926800053,445.41675926800053,445.41675926800053,445.41675926800053,445.41675926800053,a,0.5179887560007046,10,566,2,445.9673495200004,447.46886554499906,,,,,,,,,,,,,,,,,,,,,,,,,,,,,,,,,,,,,,,,,,,,,,,,,,,,,,,95034,2022-09-16_12h00.42.748,vts_reward_expectancy,2022.2.4,59.86118359128259,
0,0,1,0,1,0,0,0,hexagon,triangle,2,0,2,0,2,11,35,6,,,,,,,,,,,,,,,,,,,,,,,,,,,,,,,,,,,,,,,,447.9694078960001,447.9694078960001,447.9694078960001,447.9694078960001,447.9694078960001,447.9694078960001,447.9694078960001,447.9694078960001,447.9694078960001,447.9694078960001,l,0.44324249300188967,10,576,2,448.43687265599874,449.9380973690004,,,,,,,,,,,,,,,,,,,,,,,,,,,,,,,,,,,,,,,,,,,,,,,,,,,,,,,95034,2022-09-16_12h00.42.748,vts_reward_expectancy,2022.2.4,59.86118359128259,
,,,,,,,,,,,,,,,,,,0,0,0,0,0,0,0,0,,,,,,,,,,,,,,,,,,,,,,,,,,,,,,,,,,,,,,,,,,,,,,,,463.3531878519989,,174,W,circle,0.002019158000621246,459.6464009350002,461.1506763260004,461.1506763260004,461.1506763260004,1,0,f,0.6697745130004478,0,461.8518512739993,,,,,,,,,,,,,,,,,,,,,,,,,,,,,,,,,,,,,,,,95034,2022-09-16_12h00.42.748,vts_reward_expectancy,2022.2.4,59.86118359128259,
,,,,,,,,,,,,,,,,,,0,0,0,0,1,0,1,0,,,,,,,,,,,,,,,,,,,,,,,,,,,,,,,,,,,,,,,,,,,,,,,,467.80843636399914,,146,S,star,0.0016291030005959328,464.33162364099917,465.839135577,465.839135577,465.839135577,1,0,d,0.4388484890005202,0,466.30628973199964,,,,,,,,,,,,,,,,,,,,,,,,,,,,,,,,,,,,,,,,95034,2022-09-16_12h00.42.748,vts_reward_expectancy,2022.2.4,59.86118359128259,
,,,,,,,,,,,,,,,,,,0,0,0,0,2,0,2,0,,,,,,,,,,,,,,,,,,,,,,,,,,,,,,,,,,,,,,,,,,,,,,,,472.4632060719996,,125,Y,hexagon,0.0017046489992935676,468.7879562149992,470.2941277539994,470.2941277539994,470.2941277539994,1,0,d,0.646418899001219,0,470.96149433499886,,,,,,,,,,,,,,,,,,,,,,,,,,,,,,,,,,,,,,,,95034,2022-09-16_12h00.42.748,vts_reward_expectancy,2022.2.4,59.86118359128259,
,,,,,,,,,,,,,,,,,,0,0,0,0,3,0,3,0,,,,,,,,,,,,,,,,,,,,,,,,,,,,,,,,,,,,,,,,,,,,,,,,476.9684445089988,,139,U,triangle,0.0015978600004018517,473.4429958820001,474.94937415499953,474.94937415499953,474.94937415499953,1,0,d,0.494954850000795,0,475.4653967279992,476.9684445089988,477.4689574370004,,,,,,,,,,,,,,,,,,,,,,,,,,,,,,,,,,,,,,95034,2022-09-16_12h00.42.748,vts_reward_expectancy,2022.2.4,59.86118359128259,
,,,,,,,,,,,,,,,,,,0,0,0,0,4,0,4,0,,,,,,,,,,,,,,,,,,,,,,,,,,,,,,,,,,,,,,,,,,,,,,,,481.5567217489988,,181,B,circle,0.0005381459995987825,477.94714221399954,479.4544033589991,479.4544033589991,479.4544033589991,1,0,f,0.5679491459995916,0,480.05488129900004,,,,,,,,,,,,,,,,,,,,,,,,,,,,,,,,,,,,,,,,95034,2022-09-16_12h00.42.748,vts_reward_expectancy,2022.2.4,59.86118359128259,
,,,,,,,,,,,,,,,,,,0,0,0,0,5,0,5,0,,,,,,,,,,,,,,,,,,,,,,,,,,,,,,,,,,,,,,,,,,,,,,,,486.1448969720004,,167,H,star,0.0015334969994000858,482.534037600999,484.04268079400026,484.04268079400026,484.04268079400026,1,0,f,0.5776285090014426,0,484.64361809599905,,,,,,,,,,,,,,,,,,,,,,,,,,,,,,,,,,,,,,,,95034,2022-09-16_12h00.42.748,vts_reward_expectancy,2022.2.4,59.86118359128259,
,,,,,,,,,,,,,,,,,,0,0,0,0,6,0,6,0,,,,,,,,,,,,,,,,,,,,,,,,,,,,,,,,,,,,,,,,,,,,,,,,490.66663789300037,,132,D,triangle,0.001552704999994603,487.1230877580001,488.6310208699997,488.6310208699997,488.6310208699997,1,0,d,0.5093468220002251,0,489.1649960199993,,,,,,,,,,,,,,,,,,,,,,,,,,,,,,,,,,,,,,,,95034,2022-09-16_12h00.42.748,vts_reward_expectancy,2022.2.4,59.86118359128259,
,,,,,,,,,,,,,,,,,,0,0,0,0,7,0,7,0,,,,,,,,,,,,,,,,,,,,,,,,,,,,,,,,,,,,,,,,,,,,,,,,495.18837113599875,,160,F,hexagon,0.0014265380013966933,491.6431613129989,493.15262303800046,493.15262303800046,493.15262303800046,1,0,f,0.5176064880015474,0,493.6865746019994,,,,,,,,,,,,,,,,,,,,,,,,,,,,,,,,,,,,,,,,95034,2022-09-16_12h00.42.748,vts_reward_expectancy,2022.2.4,59.86118359128259,
,,,,,,,,,,,,,,,,,,0,0,0,0,8,0,8,0,,,,,,,,,,,,,,,,,,,,,,,,,,,,,,,,,,,,,,,,,,,,,,,,499.7603135369991,,174,W,circle,0.0010365590005676495,496.1644188070004,497.6743901560003,497.6743901560003,497.6743901560003,1,0,f,0.5620231310003874,0,498.25835577199905,,,,,,,,,,,,,,,,,,,,,,,,,,,,,,,,,,,,,,,,95034,2022-09-16_12h00.42.748,vts_reward_expectancy,2022.2.4,59.86118359128259,
,,,,,,,,,,,,,,,,,,0,0,0,0,9,0,9,0,,,,,,,,,,,,,,,,,,,,,,,,,,,,,,,,,,,,,,,,,,,,,,,,504.86563612399914,,146,S,star,0.0015690349991928088,500.7372826999999,502.24602459199923,502.24602459199923,502.24602459199923,1,0,d,1.0953956410012324,0,503.3639088609998,,,,,,,,,,,,,,,,,,,,,,,,,,,,,,,,,,,,,,,,95034,2022-09-16_12h00.42.748,vts_reward_expectancy,2022.2.4,59.86118359128259,
,,,,,,,,,,,,,,,,,,,,,,,,,,0,0,0,0,0,0,0,0,,,,,,,,,,,,,,,,,,,,,,,,,,,,,,,,,,,,,,,,544.6259118769995,,132,Y,hexagon,0.0021985769999446347,,,,,1,0,,,1,543.1243270199993,,,540.7164662249997,542.2235964270003,542.2235964270003,542.2235964270003,k,0.8770600170009857,,,,,,,,,,,,,,,,,,,,,,,,,,,,,,,,95034,2022-09-16_12h00.42.748,vts_reward_expectancy,2022.2.4,59.86118359128259,
,,,,,,,,,,,,,,,,,,,,,,,,,,0,0,0,0,1,0,1,0,,,,,,,,,,,,,,,,,,,,,,,,,,,,,,,,,,,,,,,,549.2632039700002,,160,F,circle,0.0009868739998637466,,,,,1,0,,,1,547.7631009969991,549.2632039700002,,545.6041154039995,547.1122169709997,547.1122169709997,547.1122169709997,j,0.628114318000371,,,,,,,,,,,,,,,,,,,,,,,,,,,,,,,,95034,2022-09-16_12h00.42.748,vts_reward_expectancy,2022.2.4,59.86118359128259,
,,,,,,,,,,,,,,,,,,,,,,,,,,0,0,0,0,2,0,2,0,,,,,,,,,,,,,,,,,,,,,,,,,,,,,,,,,,,,,,,,553.8362813780004,,139,W,triangle,0.0013822599994455231,,,,,1,0,,,1,552.3345681190003,,,550.2428623269989,551.7506205360005,551.7506205360005,551.7506205360005,k,0.5679439280011138,,,,,,,,,,,,,,,,,,,,,,,,,,,,,,,,95034,2022-09-16_12h00.42.748,vts_reward_expectancy,2022.2.4,59.86118359128259,
,,,,,,,,,,,,,,,,,,,,,,,,,,0,0,0,0,3,0,3,0,,,,,,,,,,,,,,,,,,,,,,,,,,,,,,,,,,,,,,,,558.7084372249992,,181,B,star,0.0007140639991121134,,,,,1,0,,,1,557.2067669159987,,,554.8143573460002,556.3223419219994,556.3223419219994,556.3223419219994,j,0.8522170420019393,,,,,,,,,,,,,,,,,,,,,,,,,,,,,,,,95034,2022-09-16_12h00.42.748,vts_reward_expectancy,2022.2.4,59.86118359128259,
,,,,,,,,,,,,,,,,,,,,,,,,,,0,0,0,0,4,0,4,0,,,,,,,,,,,,,,,,,,,,,,,,,,,,,,,,,,,,,,,,563.3303712469988,,146,S,circle,0.002362809000260313,,,,,1,0,,,1,561.8285519599995,,,559.6862967979996,561.1944470019989,561.1944470019989,561.1944470019989,k,0.602202889000182,,,,,,,,,,,,,,,,,,,,,,,,,,,,,,,,95034,2022-09-16_12h00.42.748,vts_reward_expectancy,2022.2.4,59.86118359128259,
,,,,,,,,,,,,,,,,,,,,,,,,,,0,0,0,0,5,0,5,0,,,,,,,,,,,,,,,,,,,,,,,,,,,,,,,,,,,,,,,,567.8018485809989,,174,H,star,0.001581929998792475,,,,,1,0,,,1,566.3000245599997,,,564.3090006499988,565.8161984819999,565.8161984819999,565.8161984819999,j,0.4611283790000016,,,,,,,,,,,,,,,,,,,,,,,,,,,,,,,,95034,2022-09-16_12h00.42.748,vts_reward_expectancy,2022.2.4,59.86118359128259,
,,,,,,,,,,,,,,,,,,,,,,,,,,0,0,0,0,6,0,6,0,,,,,,,,,,,,,,,,,,,,,,,,,,,,,,,,,,,,,,,,572.3733497699995,,125,D,hexagon,0.0012170879999757744,,,,,1,0,,,1,570.8716443529993,,,568.7802833240003,570.2877844189989,570.2877844189989,570.2877844189989,j,0.5571916650005733,,,,,,,,,,,,,,,,,,,,,,,,,,,,,,,,95034,2022-09-16_12h00.42.748,vts_reward_expectancy,2022.2.4,59.86118359128259,
,,,,,,,,,,,,,,,,,,,,,,,,,,0,0,0,0,7,0,7,0,,,,,,,,,,,,,,,,,,,,,,,,,,,,,,,,,,,,,,,,576.8951562949987,,167,U,triangle,0.0014808759988227393,,,,,1,0,,,1,575.393320617999,,,573.351130351999,574.8593141309993,574.8593141309993,574.8593141309993,k,0.5061160200002632,,,,,,,,,,,,,,,,,,,,,,,,,,,,,,,,95034,2022-09-16_12h00.42.748,vts_reward_expectancy,2022.2.4,59.86118359128259,
,,,,,,,,,,,,,,,,,,,,,,,,,,0,0,0,0,8,0,8,0,,,,,,,,,,,,,,,,,,,,,,,,,,,,,,,,,,,,,,,,581.566936317,,132,Y,hexagon,0.0018693649999477202,,,,,1,0,,,1,580.0653874479995,,,577.8723310509995,579.3811423879997,579.3811423879997,579.3811423879997,k,0.6562711840015254,,,,,,,,,,,,,,,,,,,,,,,,,,,,,,,,95034,2022-09-16_12h00.42.748,vts_reward_expectancy,2022.2.4,59.86118359128259,
,,,,,,,,,,,,,,,,,,,,,,,,,,0,0,0,0,9,0,9,0,,,,,,,,,,,,,,,,,,,,,,,,,,,,,,,,,,,,,,,,586.705904131999,,160,F,star,0.001539245999083505,,,,,1,0,,,1,585.2042796869991,,,582.5450832999995,584.0528896180003,584.0528896180003,584.0528896180003,j,1.1191338250009721,,,,,,,,,,,,,,,,,,,,,,,,,,,,,,,,95034,2022-09-16_12h00.42.748,vts_reward_expectancy,2022.2.4,59.86118359128259,
,,,,,,,,,,,,,,,,,,,,,,,,,,,,,,,,,,0,0,0,0,0,0,0,0,,,,,,,,,,,,,,,,,,,,,,,,,,,,0,576,,,628.4522123129991,,181,F,hexagon,0.0020352619994810084,,,,,1,0,,,2,,,,,,,,,,624.2593502999989,624.2593502999989,624.2593502999989,624.2593502999989,625.7657006930003,625.7657006930003,625.7657006930003,625.7657006930003,625.7657006930003,625.7657006930003,625.7657006930003,625.7657006930003,-1,number,NA,f,1.1685197100014193,vtsPrac,626.9506586489988,628.4522123129991,,,,,,,,,,,,95034,2022-09-16_12h00.42.748,vts_reward_expectancy,2022.2.4,59.86118359128259,
,,,,,,,,,,,,,,,,,,,,,,,,,,,,,,,,,,0,0,0,0,1,0,1,0,,,,,,,,,,,,,,,,,,,,,,,,,,,,0,576,,,633.3075328350005,,132,U,triangle,0.0007004510007391218,,,,,1,0,,,2,,,,,,,,,,629.4317473179999,629.4317473179999,629.4317473179999,629.4317473179999,630.9380912699999,630.9380912699999,630.9380912699999,630.9380912699999,630.9380912699999,630.9380912699999,630.9380912699999,630.9380912699999,switch,letter,lettSwt,k,0.8351066660015931,vtsPrac,631.8055563170001,,,,,,,,,,,,,95034,2022-09-16_12h00.42.748,vts_reward_expectancy,2022.2.4,59.86118359128259,
,,,,,,,,,,,,,,,,,,,,,,,,,,,,,,,,,,0,0,0,0,2,0,2,0,,,,,,,,,,,,,,,,,,,,,,,,,,,,0,576,,,638.4463244580002,,167,D,circle,0.0015232759997161338,,,,,1,0,,,2,,,,,,,,,,634.2865055589991,634.2865055589991,634.2865055589991,634.2865055589991,635.793510178999,635.793510178999,635.793510178999,635.793510178999,635.793510178999,635.793510178999,635.793510178999,635.793510178999,repeat,letter,lettRpt,j,1.1231727990016225,vtsPrac,636.94455199,,,,,,,,,,,,,95034,2022-09-16_12h00.42.748,vts_reward_expectancy,2022.2.4,59.86118359128259,
,,,,,,,,,,,,,,,,,,,,,,,,,,,,,,,,,,0,0,0,0,3,0,3,0,,,,,,,,,,,,,,,,,,,,,,,,,,,,0,576,,,643.1855487419998,,174,Y,star,0.0018562460008979542,,,,,1,0,,,2,,,,,,,,,,639.425495861,639.425495861,639.425495861,639.425495861,640.9323229580004,640.9323229580004,640.9323229580004,640.9323229580004,640.9323229580004,640.9323229580004,640.9323229580004,640.9323229580004,switch,number,numSwt,f,0.7279914970004029,vtsPrac,641.6835208489993,,,,,,,,,,,,,95034,2022-09-16_12h00.42.748,vts_reward_expectancy,2022.2.4,59.86118359128259,
,,,,,,,,,,,,,,,,,,,,,,,,,,,,,,,,,,0,0,0,0,4,0,4,0,,,,,,,,,,,,,,,,,,,,,,,,,,,,0,576,,,647.9070681979993,,181,F,hexagon,0.001557643001433462,,,,,1,0,,,2,,,,,,,,,,644.1618396319991,644.1618396319991,644.1618396319991,644.1618396319991,645.6708552990003,645.6708552990003,645.6708552990003,645.6708552990003,645.6708552990003,645.6708552990003,645.6708552990003,645.6708552990003,repeat,number,numRpt,f,0.7097331800014217,vtsPrac,646.4052058500001,,,,,,,,,,,,,95034,2022-09-16_12h00.42.748,vts_reward_expectancy,2022.2.4,59.86118359128259,
,,,,,,,,,,,,,,,,,,,,,,,,,,,,,,,,,,0,0,0,0,5,0,5,0,,,,,,,,,,,,,,,,,,,,,,,,,,,,0,576,,,652.6284720290005,,132,U,triangle,0.0015313500007323455,,,,,1,0,,,2,,,,,,,,,,648.8838185229997,648.8838185229997,648.8838185229997,648.8838185229997,650.3928455179994,650.3928455179994,650.3928455179994,650.3928455179994,650.3928455179994,650.3928455179994,650.3928455179994,650.3928455179994,switch,letter,lettSwt,k,0.7077780430008715,vtsPrac,651.1270529209996,,,,,,,,,,,,,95034,2022-09-16_12h00.42.748,vts_reward_expectancy,2022.2.4,59.86118359128259,
,,,,,,,,,,,,,,,,,,,,,,,,,,,,,,,,,,0,0,0,0,6,0,6,0,,,,,,,,,,,,,,,,,,,,,,,,,,,,0,576,,,657.6508878479999,,167,D,circle,0.0017711219988996163,,,,,1,0,,,2,,,,,,,,,,653.6063656549995,653.6063656549995,653.6063656549995,653.6063656549995,655.1148781869997,655.1148781869997,655.1148781869997,655.1148781869997,655.1148781869997,655.1148781869997,655.1148781869997,655.1148781869997,repeat,letter,lettRpt,j,1.0100913610003772,vtsPrac,656.1492025419993,,,,,,,,,,,,,95034,2022-09-16_12h00.42.748,vts_reward_expectancy,2022.2.4,59.86118359128259,
,,,,,,,,,,,,,,,,,,,,,,,,,,,,,,,,,,0,0,0,0,7,0,7,0,,,,,,,,,,,,,,,,,,,,,,,,,,,,0,576,,,662.5727735420005,,174,Y,star,0.0012246589994902024,,,,,1,0,,,2,,,,,,,,,,658.6279774679988,658.6279774679988,658.6279774679988,658.6279774679988,660.1373463889995,660.1373463889995,660.1373463889995,660.1373463889995,660.1373463889995,660.1373463889995,660.1373463889995,660.1373463889995,switch,number,numSwt,f,0.9171347650008101,vtsPrac,661.0714724509999,,,,,,,,,,,,,95034,2022-09-16_12h00.42.748,vts_reward_expectancy,2022.2.4,59.86118359128259,
,,,,,,,,,,,,,,,,,,,,,,,,,,,,,,,,,,0,0,0,0,8,0,8,0,,,,,,,,,,,,,,,,,,,,,,,,,,,,0,576,,,667.1278627629999,,139,H,star,0.0011182350008311914,,,,,1,0,,,2,,,,,,,,,,663.5522374779994,663.5522374779994,663.5522374779994,663.5522374779994,665.0592884439993,665.0592884439993,665.0592884439993,665.0592884439993,665.0592884439993,665.0592884439993,665.0592884439993,665.0592884439993,switch,letter,lettSwt,j,0.5458719010021014,vtsPrac,665.6264485769989,,,,,,,,,,,,,95034,2022-09-16_12h00.42.748,vts_reward_expectancy,2022.2.4,59.86118359128259,
,,,,,,,,,,,,,,,,,,,,,,,,,,,,,,,,,,0,0,0,0,9,0,9,0,,,,,,,,,,,,,,,,,,,,,,,,,,,,0,576,,,671.9998838720003,,167,Y,circle,0.0017604559998289915,,,,,1,0,,,2,,,,,,,,,,668.1060449590004,668.1060449590004,668.1060449590004,668.1060449590004,669.6138997729995,669.6138997729995,669.6138997729995,669.6138997729995,669.6138997729995,669.6138997729995,669.6138997729995,669.6138997729995,switch,number,numSwt,f,0.8630322650024027,vtsPrac,670.4981493309988,,,,,,,,,,,,,95034,2022-09-16_12h00.42.748,vts_reward_expectancy,2022.2.4,59.86118359128259,
,,,,,,,,,,,,,,,,,,,,,,,,,,,,,,,,,,0,0,0,0,10,0,10,0,,,,,,,,,,,,,,,,,,,,,,,,,,,,0,576,,,677.122588623999,,146,U,star,0.0015963690002536168,,,,,1,0,,,2,,,,,,,,,,672.9787622639997,672.9787622639997,672.9787622639997,672.9787622639997,674.486074208,674.486074208,674.486074208,674.486074208,674.486074208,674.486074208,674.486074208,674.486074208,switch,letter,lettSwt,k,1.1020582600012858,vtsPrac,675.6206747569995,,,,,,,,,,,,,95034,2022-09-16_12h00.42.748,vts_reward_expectancy,2022.2.4,59.86118359128259,
,,,,,,,,,,,,,,,,,,,,,,,,,,,,,,,,,,0,0,0,0,11,0,11,0,,,,,,,,,,,,,,,,,,,,,,,,,,,,0,576,,,682.9456174120005,,174,B,circle,0.0016052999999374151,,,,,1,0,,,2,,,,,,,,,,678.1008322750004,678.1008322750004,678.1008322750004,678.1008322750004,679.6085310979997,679.6085310979997,679.6085310979997,679.6085310979997,679.6085310979997,679.6085310979997,679.6085310979997,679.6085310979997,repeat,letter,lettRpt,j,1.8121003510023002,vtsPrac,681.443797042999,,,,,,,,,,,,,95034,2022-09-16_12h00.42.748,vts_reward_expectancy,2022.2.4,59.86118359128259,
,,,,,,,,,,,,,,,,,,,,,,,,,,,,,,,,,,0,0,0,0,12,0,12,0,,,,,,,,,,,,,,,,,,,,,,,,,,,,0,576,,,687.8341801779989,,174,H,circle,0.001669974000833463,,,,,1,0,,,2,,,,,,,,,,683.9236226949997,683.9236226949997,683.9236226949997,683.9236226949997,685.4313135089997,685.4313135089997,685.4313135089997,685.4313135089997,685.4313135089997,685.4313135089997,685.4313135089997,685.4313135089997,switch,number,numSwt,f,0.8775863840019156,vtsPrac,686.3325994369989,,,,,,,,,,,,,95034,2022-09-16_12h00.42.748,vts_reward_expectancy,2022.2.4,59.86118359128259,
,,,,,,,,,,,,,,,,,,,,,,,,,,,,,,,,,,0,0,0,0,13,0,13,0,,,,,,,,,,,,,,,,,,,,,,,,,,,,0,576,,,692.4225525069996,,132,F,star,0.0017427700004191138,,,,,1,0,,,2,,,,,,,,,,688.8110598129988,688.8110598129988,688.8110598129988,688.8110598129988,690.3203075000001,690.3203075000001,690.3203075000001,690.3203075000001,690.3203075000001,690.3203075000001,690.3203075000001,690.3203075000001,repeat,number,numRpt,d,0.5807220320002671,vtsPrac,690.9208751999995,,,,,,,,,,,,,95034,2022-09-16_12h00.42.748,vts_reward_expectancy,2022.2.4,59.86118359128259,
,,,,,,,,,,,,,,,,,,,,,,,,,,,,,,,,,,0,0,0,0,14,0,14,0,,,,,,,,,,,,,,,,,,,,,,,,,,,,0,576,,,697.5113899669996,,167,D,star,0.0014329179994092556,,,,,1,0,,,2,,,,,,,,,,693.4001225119991,693.4001225119991,693.4001225119991,693.4001225119991,694.9085218370001,694.9085218370001,694.9085218370001,694.9085218370001,694.9085218370001,694.9085218370001,694.9085218370001,694.9085218370001,repeat,number,numRpt,f,1.07301077000011,vtsPrac,696.0100284870005,,,,,,,,,,,,,95034,2022-09-16_12h00.42.748,vts_reward_expectancy,2022.2.4,59.86118359128259,
,,,,,,,,,,,,,,,,,,,,,,,,,,,,,,,,,,0,0,0,0,15,0,15,0,,,,,,,,,,,,,,,,,,,,,,,,,,,,0,576,,,702.1999381499991,,139,S,hexagon,0.0015190920003078645,,,,,1,0,,,2,,,,,,,,,,698.4897835479987,698.4897835479987,698.4897835479987,698.4897835479987,699.9975324400002,699.9975324400002,699.9975324400002,699.9975324400002,699.9975324400002,699.9975324400002,699.9975324400002,699.9975324400002,repeat,number,numRpt,d,0.6788279490010609,vtsPrac,700.6983971199988,,,,,,,,,,,,,95034,2022-09-16_12h00.42.748,vts_reward_expectancy,2022.2.4,59.86118359128259,
,,,,,,,,,,,,,,,,,,,,,,,,,,,,,,,,,,,,,,,,,,0,0,0,0,,,,,,,,,,,,,,,,,,,,,,,,0,576,,,738.156113691999,,181,F,triangle,0.002406661000350141,,,,,1,0,,,,,,,,,,,,,733.7610390459995,733.7610390459995,733.7610390459995,733.7610390459995,735.2699986999996,735.2699986999996,735.2699986999996,735.2699986999996,735.2699986999996,735.2699986999996,735.2699986999996,735.2699986999996,repeat,number,numRpt,f,1.3682214750006096,noRew,,,0,736.6547544980003,,,,,,,,,,95034,2022-09-16_12h00.42.748,vts_reward_expectancy,2022.2.4,59.86118359128259,
,,,,,,,,,,,,,,,,,,,,,,,,,,,,,,,,,,,,,,,,,,1,0,1,0,,,,,,,,,,,,,,,,,,,,,,,,0,576,,,742.8948793359996,,125,D,hexagon,0.001020446999973501,,,,,1,0,,,,,,,,,,,,,739.1341671810005,739.1341671810005,739.1341671810005,739.1341671810005,740.6424036099997,740.6424036099997,740.6424036099997,740.6424036099997,740.6424036099997,740.6424036099997,740.6424036099997,740.6424036099997,switch,letter,lettSwt,j,0.7222565080010099,noRew,,,0,741.3932863970003,,,,,,,,,,95034,2022-09-16_12h00.42.748,vts_reward_expectancy,2022.2.4,59.86118359128259,
,,,,,,,,,,,,,,,,,,,,,,,,,,,,,,,,,,,,,,,,,,2,0,2,0,,,,,,,,,,,,,,,,,,,,,,,,0,576,,,747.6832398299994,,132,U,star,0.0015638140012015356,,,,,1,0,,,,,,,,,,,,,743.8735285330004,743.8735285330004,743.8735285330004,743.8735285330004,745.3812239620001,745.3812239620001,745.3812239620001,745.3812239620001,745.3812239620001,745.3812239620001,745.3812239620001,745.3812239620001,switch,number,numSwt,d,0.7846685929998785,noRew,,,0,746.1819751769999,747.6832398299994,,,,,,,,,95034,2022-09-16_12h00.42.748,vts_reward_expectancy,2022.2.4,59.86118359128259,
,,,,,,,,,,,,,,,,,,,,,,,,,,,,,,,,,,,,,,,,,,3,0,3,0,,,,,,,,,,,,,,,,,,,,,,,,0,576,,,752.5889270629996,,167,H,triangle,0.0006052799999451963,,,,,1,0,,,,,,,,,,,,,748.6613462719997,748.6613462719997,748.6613462719997,748.6613462719997,750.1693582730004,750.1693582730004,750.1693582730004,750.1693582730004,750.1693582730004,750.1693582730004,750.1693582730004,750.1693582730004,switch,letter,lettSwt,j,0.901166801000727,noRew,,,0,751.0870406329996,,,,,,,,,,95034,2022-09-16_12h00.42.748,vts_reward_expectancy,2022.2.4,59.86118359128259,
,,,,,,,,,,,,,,,,,,,,,,,,,,,,,,,,,,,,,,,,,,4,0,4,0,,,,,,,,,,,,,,,,,,,,,,,,0,576,,,757.1772667650002,,181,F,star,0.0015250670003297273,,,,,1,0,,,,,,,,,,,,,753.5662687879994,753.5662687879994,753.5662687879994,753.5662687879994,755.0751065570003,755.0751065570003,755.0751065570003,755.0751065570003,755.0751065570003,755.0751065570003,755.0751065570003,755.0751065570003,repeat,letter,lettRpt,j,0.568890435000867,noRew,,,0,755.6755894159996,,,,,,,,,,95034,2022-09-16_12h00.42.748,vts_reward_expectancy,2022.2.4,59.86118359128259,
,,,,,,,,,,,,,,,,,,,,,,,,,,,,,,,,,,,,,,,,,,5,0,5,0,,,,,,,,,,,,,,,,,,,,,,,,0,576,,,761.9993882260005,,125,D,triangle,0.0017670389988779789,,,,,1,0,,,,,,,,,,,,,758.1551139610001,758.1551139610001,758.1551139610001,758.1551139610001,759.6635288099988,759.6635288099988,759.6635288099988,759.6635288099988,759.6635288099988,759.6635288099988,759.6635288099988,759.6635288099988,switch,number,numSwt,d,0.8057345730012457,noRew,,,0,760.4978188249988,,,,,,,,,,95034,2022-09-16_12h00.42.748,vts_reward_expectancy,2022.2.4,59.86118359128259,
,,,,,,,,,,,,,,,,,,,,,,,,,,,,,,,,,,,,,,,,,,6,0,6,0,,,,,,,,,,,,,,,,,,,,,,,,0,576,,,766.4874493209991,,132,U,triangle,0.0017558780000399565,,,,,1,0,,,,,,,,,,,,,762.9769732629993,762.9769732629993,762.9769732629993,762.9769732629993,764.4856098849996,764.4856098849996,764.4856098849996,764.4856098849996,764.4856098849996,764.4856098849996,764.4856098849996,764.4856098849996,repeat,number,numRpt,d,0.4717529800018383,noRew,,,0,764.9859318580002,,,,,,,,,,95034,2022-09-16_12h00.42.748,vts_reward_expectancy,2022.2.4,59.86118359128259,
,,,,,,,,,,,,,,,,,,,,,,,,,,,,,,,,,,,,,,,,,,7,0,7,0,,,,,,,,,,,,,,,,,,,,,,,,0,576,,,771.2927180259994,,167,H,hexagon,0.0014208769989636494,,,,,1,0,,,,,,,,,,,,,767.4655109279993,767.4655109279993,767.4655109279993,767.4655109279993,768.9735423759994,768.9735423759994,768.9735423759994,768.9735423759994,768.9735423759994,768.9735423759994,768.9735423759994,768.9735423759994,switch,letter,lettSwt,j,0.8009932690019923,noRew,,,0,769.7912123779988,,,,,,,,,,95034,2022-09-16_12h00.42.748,vts_reward_expectancy,2022.2.4,59.86118359128259,
,,,,,,,,,,,,,,,,,,,,,,,,,,,,,,,,,,,,,,,,,,8,0,8,0,,,,,,,,,,,,,,,,,,,,,,,,0,576,,,776.3651528659993,,160,B,circle,0.0011528439990797779,,,,,1,0,,,,,,,,,,,,,772.2710950029996,772.2710950029996,772.2710950029996,772.2710950029996,773.7790969929993,773.7790969929993,773.7790969929993,773.7790969929993,773.7790969929993,773.7790969929993,773.7790969929993,773.7790969929993,switch,number,numSwt,f,1.051764739000646,noRew,,,0,774.8634165210005,,,,,,,,,,95034,2022-09-16_12h00.42.748,vts_reward_expectancy,2022.2.4,59.86118359128259,
,,,,,,,,,,,,,,,,,,,,,,,,,,,,,,,,,,,,,,,,,,9,0,9,0,,,,,,,,,,,,,,,,,,,,,,,,0,576,,,781.3039376979996,,139,F,triangle,0.001823065998905804,,,,,1,0,,,,,,,,,,,,,777.3429937639994,777.3429937639994,777.3429937639994,777.3429937639994,778.8513075989995,778.8513075989995,778.8513075989995,778.8513075989995,778.8513075989995,778.8513075989995,778.8513075989995,778.8513075989995,switch,letter,lettSwt,j,0.9299973480010522,noRew,,,0,779.8027764750004,,,,,,,,,,95034,2022-09-16_12h00.42.748,vts_reward_expectancy,2022.2.4,59.86118359128259,
,,,,,,,,,,,,,,,,,,,,,,,,,,,,,,,,,,,,,,,,,,10,0,10,0,,,,,,,,,,,,,,,,,,,,,,,,0,576,,,785.8925562789991,,146,S,triangle,0.0017791330010368256,,,,,1,0,,,,,,,,,,,,,782.2818652679998,782.2818652679998,782.2818652679998,782.2818652679998,783.7902395399997,783.7902395399997,783.7902395399997,783.7902395399997,783.7902395399997,783.7902395399997,783.7902395399997,783.7902395399997,repeat,letter,lettRpt,k,0.5678786340013176,noRew,,,0,784.3905637600001,,,,,,,,,,95034,2022-09-16_12h00.42.748,vts_reward_expectancy,2022.2.4,59.86118359128259,
,,,,,,,,,,,,,,,,,,,,,,,,,,,,,,,,,,,,,,,,,,11,0,11,0,,,,,,,,,,,,,,,,,,,,,,,,0,576,,,790.9811601130004,,167,U,circle,0.0018068830013362458,,,,,1,0,,,,,,,,,,,,,786.8707033970004,786.8707033970004,786.8707033970004,786.8707033970004,788.3780852010004,788.3780852010004,788.3780852010004,788.3780852010004,788.3780852010004,788.3780852010004,788.3780852010004,788.3780852010004,repeat,letter,lettRpt,k,1.0843832009995822,noRew,,,0,789.4794065639999,,,,,,,,,,95034,2022-09-16_12h00.42.748,vts_reward_expectancy,2022.2.4,59.86118359128259,
,,,,,,,,,,,,,,,,,,,,,,,,,,,,,,,,,,,,,,,,,,12,0,12,0,,,,,,,,,,,,,,,,,,,,,,,,0,576,,,795.7697615889992,,174,W,triangle,0.001131846998760011,,,,,1,0,,,,,,,,,,,,,791.9585840679993,791.9585840679993,791.9585840679993,791.9585840679993,793.4674723480002,793.4674723480002,793.4674723480002,793.4674723480002,793.4674723480002,793.4674723480002,793.4674723480002,793.4674723480002,repeat,letter,lettRpt,k,0.7693415450012253,noRew,,,0,794.2680773829998,,,,,,,,,,95034,2022-09-16_12h00.42.748,vts_reward_expectancy,2022.2.4,59.86118359128259,
,,,,,,,,,,,,,,,,,,,,,,,,,,,,,,,,,,,,,,,,,,13,0,13,0,,,,,,,,,,,,,,,,,,,,,,,,0,576,,,800.2580841149993,,167,B,circle,0.0016149670009326655,,,,,1,0,,,,,,,,,,,,,796.7475802230001,796.7475802230001,796.7475802230001,796.7475802230001,798.2557642720003,798.2557642720003,798.2557642720003,798.2557642720003,798.2557642720003,798.2557642720003,798.2557642720003,798.2557642720003,switch,number,numSwt,f,0.4768027930003882,noRew,,,0,798.7564163089992,,,,,,,,,,95034,2022-09-16_12h00.42.748,vts_reward_expectancy,2022.2.4,59.86118359128259,
,,,,,,,,,,,,,,,,,,,,,,,,,,,,,,,,,,,,,,,,,,14,0,14,0,,,,,,,,,,,,,,,,,,,,,,,,0,576,,,804.8465205989996,,160,H,hexagon,0.0015709759991295869,,,,,1,0,,,,,,,,,,,,,801.2367782460005,801.2367782460005,801.2367782460005,801.2367782460005,802.7441542399993,802.7441542399993,802.7441542399993,802.7441542399993,802.7441542399993,802.7441542399993,802.7441542399993,802.7441542399993,repeat,number,numRpt,f,0.5722457829997438,noRew,,,0,803.3448164359997,,,,,,,,,,95034,2022-09-16_12h00.42.748,vts_reward_expectancy,2022.2.4,59.86118359128259,
,,,,,,,,,,,,,,,,,,,,,,,,,,,,,,,,,,,,,,,,,,15,0,15,0,,,,,,,,,,,,,,,,,,,,,,,,0,576,,,809.7017441089993,,125,D,star,0.0015050370002427371,,,,,0,0,,,,,,,,,,,,,805.8237940099989,805.8237940099989,805.8237940099989,805.8237940099989,807.3323951479997,807.3323951479997,807.3323951479997,807.3323951479997,807.3323951479997,807.3323951479997,807.3323951479997,807.3323951479997,switch,letter,NA,k,0.8405507630013744,noRew,,,0,808.2001844509996,,,,,,,,,,95034,2022-09-16_12h00.42.748,vts_reward_expectancy,2022.2.4,59.86118359128259,
,,,,,,,,,,,,,,,,,,,,,,,,,,,,,,,,,,,,,,,,,,16,0,16,0,,,,,,,,,,,,,,,,,,,,,,,,0,576,,,814.3401681229989,,160,Y,triangle,0.0017387899988534627,,,,,1,1,,,,,,,,,,,,,810.6806837290005,810.6806837290005,810.6806837290005,810.6806837290005,812.187935865999,812.187935865999,812.187935865999,812.187935865999,812.187935865999,812.187935865999,812.187935865999,812.187935865999,repeat,letter,lettRpt,k,0.6180552850019012,noRew,,,0,812.8385778880001,,,,,,,,,,95034,2022-09-16_12h00.42.748,vts_reward_expectancy,2022.2.4,59.86118359128259,
,,,,,,,,,,,,,,,,,,,,,,,,,,,,,,,,,,,,,,,,,,17,0,17,0,,,,,,,,,,,,,,,,,,,,,,,,0,576,,,819.0455003030002,,167,F,hexagon,0.0015323860006901668,,,,,1,0,,,,,,,,,,,,,815.318011374,815.318011374,815.318011374,815.318011374,816.826207783999,816.826207783999,816.826207783999,816.826207783999,816.826207783999,816.826207783999,816.826207783999,816.826207783999,repeat,letter,lettRpt,j,0.6994463980008732,noRew,,,0,817.5436180590004,819.0455003030002,,,,,,,,,95034,2022-09-16_12h00.42.748,vts_reward_expectancy,2022.2.4,59.86118359128259,
,,,,,,,,,,,,,,,,,,,,,,,,,,,,,,,,,,,,,,,,,,18,0,18,0,,,,,,,,,,,,,,,,,,,,,,,,0,576,,,823.5338420110002,,132,U,hexagon,0.0009171390011033509,,,,,1,0,,,,,,,,,,,,,820.0232717620001,820.0232717620001,820.0232717620001,820.0232717620001,821.5315741079994,821.5315741079994,821.5315741079994,821.5315741079994,821.5315741079994,821.5315741079994,821.5315741079994,821.5315741079994,switch,number,numSwt,d,0.47396267499971145,noRew,,,0,822.0325979629997,,,,,,,,,,95034,2022-09-16_12h00.42.748,vts_reward_expectancy,2022.2.4,59.86118359128259,
,,,,,,,,,,,,,,,,,,,,,,,,,,,,,,,,,,,,,,,,,,19,0,19,0,,,,,,,,,,,,,,,,,,,,,,,,0,576,,,828.1721478790005,,181,D,star,0.0016915090000111377,,,,,1,0,,,,,,,,,,,,,824.511439246,824.511439246,824.511439246,824.511439246,826.0197494740005,826.0197494740005,826.0197494740005,826.0197494740005,826.0197494740005,826.0197494740005,826.0197494740005,826.0197494740005,repeat,number,numRpt,f,0.618107450000025,noRew,,,0,826.67054517,,,,,,,,,,95034,2022-09-16_12h00.42.748,vts_reward_expectancy,2022.2.4,59.86118359128259,
,,,,,,,,,,,,,,,,,,,,,,,,,,,,,,,,,,,,,,,,,,20,0,20,0,,,,,,,,,,,,,,,,,,,,,,,,0,576,,,833.411464322,,132,D,triangle,0.0016724069992051227,,,,,1,0,,,,,,,,,,,,,829.1479022879994,829.1479022879994,829.1479022879994,829.1479022879994,830.6582661169996,830.6582661169996,830.6582661169996,830.6582661169996,830.6582661169996,830.6582661169996,830.6582661169996,830.6582661169996,switch,letter,lettSwt,j,1.2189878890003456,noRew,,,0,831.9098528009999,,,,,,,,,,95034,2022-09-16_12h00.42.748,vts_reward_expectancy,2022.2.4,59.86118359128259,
,,,,,,,,,,,,,,,,,,,,,,,,,,,,,,,,,,,,,,,,,,21,0,21,0,,,,,,,,,,,,,,,,,,,,,,,,0,576,,,838.0999185370001,,160,S,hexagon,0.001317484000537661,,,,,1,0,,,,,,,,,,,,,834.3890735860004,834.3890735860004,834.3890735860004,834.3890735860004,835.8974927750005,835.8974927750005,835.8974927750005,835.8974927750005,835.8974927750005,835.8974927750005,835.8974927750005,835.8974927750005,repeat,letter,lettRpt,k,0.675439009000911,noRew,,,0,836.5983526979999,,,,,,,,,,95034,2022-09-16_12h00.42.748,vts_reward_expectancy,2022.2.4,59.86118359128259,
,,,,,,,,,,,,,,,,,,,,,,,,,,,,,,,,,,,,,,,,,,22,0,22,0,,,,,,,,,,,,,,,,,,,,,,,,0,576,,,843.1051727800004,,146,U,hexagon,0.0015031439997983398,,,,,1,0,,,,,,,,,,,,,839.077784654999,839.077784654999,839.077784654999,839.077784654999,840.5858092189992,840.5858092189992,840.5858092189992,840.5858092189992,840.5858092189992,840.5858092189992,840.5858092189992,840.5858092189992,switch,number,numSwt,d,0.9948578130006354,noRew,,,0,841.603560083,,,,,,,,,,95034,2022-09-16_12h00.42.748,vts_reward_expectancy,2022.2.4,59.86118359128259,
,,,,,,,,,,,,,,,,,,,,,,,,,,,,,,,,,,,,,,,,,,23,0,23,0,,,,,,,,,,,,,,,,,,,,,,,,0,576,,,847.8938150470003,,181,F,triangle,0.001459629000237328,,,,,1,0,,,,,,,,,,,,,844.0839528670003,844.0839528670003,844.0839528670003,844.0839528670003,845.5912218079993,845.5912218079993,845.5912218079993,845.5912218079993,845.5912218079993,845.5912218079993,845.5912218079993,845.5912218079993,repeat,number,numRpt,f,0.7823305410001922,noRew,,,0,846.3922169750003,,,,,,,,,,95034,2022-09-16_12h00.42.748,vts_reward_expectancy,2022.2.4,59.86118359128259,
,,,,,,,,,,,,,,,,,,,,,,,,,,,,,,,,,,,,,,,,,,24,0,24,0,,,,,,,,,,,,,,,,,,,,,,,,0,576,,,852.9159852869998,,160,W,circle,0.0012236399998073466,,,,,1,0,,,,,,,,,,,,,848.8708846089994,848.8708846089994,848.8708846089994,848.8708846089994,850.3800792860002,850.3800792860002,850.3800792860002,850.3800792860002,850.3800792860002,850.3800792860002,850.3800792860002,850.3800792860002,repeat,number,numRpt,f,1.0019899760009139,noRew,,,0,851.414489535,,,,,,,,,,95034,2022-09-16_12h00.42.748,vts_reward_expectancy,2022.2.4,59.86118359128259,
,,,,,,,,,,,,,,,,,,,,,,,,,,,,,,,,,,,,,,,,,,25,0,25,0,,,,,,,,,,,,,,,,,,,,,,,,0,576,,,858.071757706999,,181,D,star,0.0015277040001819842,,,,,1,0,,,,,,,,,,,,,853.8939350839992,853.8939350839992,853.8939350839992,853.8939350839992,855.4021163839989,855.4021163839989,855.4021163839989,855.4021163839989,855.4021163839989,855.4021163839989,855.4021163839989,855.4021163839989,switch,letter,lettSwt,j,1.1464477030021953,noRew,,,0,856.5700370599989,,,,,,,,,,95034,2022-09-16_12h00.42.748,vts_reward_expectancy,2022.2.4,59.86118359128259,
,,,,,,,,,,,,,,,,,,,,,,,,,,,,,,,,,,,,,,,,,,26,0,26,0,,,,,,,,,,,,,,,,,,,,,,,,0,576,,,862.7436116440003,,146,U,triangle,0.0015924870003800606,,,,,1,0,,,,,,,,,,,,,859.0498322989988,859.0498322989988,859.0498322989988,859.0498322989988,860.5579782639998,860.5579782639998,860.5579782639998,860.5579782639998,860.5579782639998,860.5579782639998,860.5579782639998,860.5579782639998,switch,number,numSwt,d,0.6622133730015776,noRew,,,0,861.2418804019999,,,,,,,,,,95034,2022-09-16_12h00.42.748,vts_reward_expectancy,2022.2.4,59.86118359128259,
,,,,,,,,,,,,,,,,,,,,,,,,,,,,,,,,,,,,,,,,,,27,0,27,0,,,,,,,,,,,,,,,,,,,,,,,,0,576,,,867.8327440390003,,174,Y,circle,0.001615964998563868,,,,,1,0,,,,,,,,,,,,,863.7216980939993,863.7216980939993,863.7216980939993,863.7216980939993,865.229755635999,865.229755635999,865.229755635999,865.229755635999,865.229755635999,865.229755635999,865.229755635999,865.229755635999,switch,letter,lettSwt,k,1.0794234340010007,noRew,,,0,866.3312082649991,,,,,,,,,,95034,2022-09-16_12h00.42.748,vts_reward_expectancy,2022.2.4,59.86118359128259,
,,,,,,,,,,,,,,,,,,,,,,,,,,,,,,,,,,,,,,,,,,28,0,28,0,,,,,,,,,,,,,,,,,,,,,,,,0,576,,,872.5547415889996,,132,F,star,0.0013920659985160455,,,,,1,0,,,,,,,,,,,,,868.8110421959991,868.8110421959991,868.8110421959991,868.8110421959991,870.3186756819996,870.3186756819996,870.3186756819996,870.3186756819996,870.3186756819996,870.3186756819996,870.3186756819996,870.3186756819996,repeat,letter,lettRpt,j,0.7098678100010147,noRew,,,0,871.0530602859999,,,,,,,,,,95034,2022-09-16_12h00.42.748,vts_reward_expectancy,2022.2.4,59.86118359128259,
,,,,,,,,,,,,,,,,,,,,,,,,,,,,,,,,,,,,,,,,,,29,0,29,0,,,,,,,,,,,,,,,,,,,,,,,,0,576,,,878.310846028,,167,S,triangle,0.0016271170006803004,,,,,1,0,,,,,,,,,,,,,873.5337128259998,873.5337128259998,873.5337128259998,873.5337128259998,875.0405513080004,875.0405513080004,875.0405513080004,875.0405513080004,875.0405513080004,875.0405513080004,875.0405513080004,875.0405513080004,switch,number,numSwt,f,1.7402097890008008,noRew,,,0,876.8091814660002,,,,,,,,,,95034,2022-09-16_12h00.42.748,vts_reward_expectancy,2022.2.4,59.86118359128259,
,,,,,,,,,,,,,,,,,,,,,,,,,,,,,,,,,,,,,,,,,,30,0,30,0,,,,,,,,,,,,,,,,,,,,,,,,0,576,,,884.1338802129994,,181,W,triangle,0.0017580040002940223,,,,,1,0,,,,,,,,,,,,,879.2893995189988,879.2893995189988,879.2893995189988,879.2893995189988,880.7969546709992,880.7969546709992,880.7969546709992,880.7969546709992,880.7969546709992,880.7969546709992,880.7969546709992,880.7969546709992,repeat,number,numRpt,f,1.8163444380006695,noRew,,,0,882.632416557999,,,,,,,,,,95034,2022-09-16_12h00.42.748,vts_reward_expectancy,2022.2.4,59.86118359128259,
,,,,,,,,,,,,,,,,,,,,,,,,,,,,,,,,,,,,,,,,,,31,0,31,0,,,,,,,,,,,,,,,,,,,,,,,,0,576,,,888.939204237,,146,D,hexagon,0.0012353250003798166,,,,,1,0,,,,,,,,,,,,,885.1117324679999,885.1117324679999,885.1117324679999,885.1117324679999,886.6203268659992,886.6203268659992,886.6203268659992,886.6203268659992,886.6203268659992,886.6203268659992,886.6203268659992,886.6203268659992,repeat,number,numRpt,d,0.785097105001114,noRew,,,0,887.4376997199997,,,,,,,,,,95034,2022-09-16_12h00.42.748,vts_reward_expectancy,2022.2.4,59.86118359128259,
,,,,,,,,,,,,,,,,,,,,,,,,,,,,,,,,,,,,,,,,,,32,0,32,0,,,,,,,,,,,,,,,,,,,,,,,,0,576,,,893.5446567500003,,146,B,circle,0.0014087330000620568,,,,,1,0,,,,,,,,,,,,,889.9178571789998,889.9178571789998,889.9178571789998,889.9178571789998,891.4252747339997,891.4252747339997,891.4252747339997,891.4252747339997,891.4252747339997,891.4252747339997,891.4252747339997,891.4252747339997,switch,letter,lettSwt,j,0.5950981480000337,noRew,,,0,892.0426518490003,,,,,,,,,,95034,2022-09-16_12h00.42.748,vts_reward_expectancy,2022.2.4,59.86118359128259,
,,,,,,,,,,,,,,,,,,,,,,,,,,,,,,,,,,,,,,,,,,33,0,33,0,,,,,,,,,,,,,,,,,,,,,,,,0,576,,,898.3165735969997,,125,U,triangle,0.0018008949991781265,,,,,1,0,,,,,,,,,,,,,894.5210501749989,894.5210501749989,894.5210501749989,894.5210501749989,896.0306145260001,896.0306145260001,896.0306145260001,896.0306145260001,896.0306145260001,896.0306145260001,896.0306145260001,896.0306145260001,switch,number,numSwt,d,0.7513920350011176,noRew,,,0,896.814676820999,,,,,,,,,,95034,2022-09-16_12h00.42.748,vts_reward_expectancy,2022.2.4,59.86118359128259,
,,,,,,,,,,,,,,,,,,,,,,,,,,,,,,,,,,,,,,,,,,34,0,34,0,,,,,,,,,,,,,,,,,,,,,,,,0,576,,,903.1885857319994,,167,F,star,0.0017139609990408644,,,,,1,0,,,,,,,,,,,,,899.2945334519991,899.2945334519991,899.2945334519991,899.2945334519991,900.8023194739999,900.8023194739999,900.8023194739999,900.8023194739999,900.8023194739999,900.8023194739999,900.8023194739999,900.8023194739999,switch,letter,lettSwt,j,0.8515601490016707,noRew,,,0,901.6867078769992,,,,,,,,,,95034,2022-09-16_12h00.42.748,vts_reward_expectancy,2022.2.4,59.86118359128259,
,,,,,,,,,,,,,,,,,,,,,,,,,,,,,,,,,,,,,,,,,,35,0,35,0,,,,,,,,,,,,,,,,,,,,,,,,0,576,,,908.0101168769997,,132,D,circle,0.0013504559992725262,,,,,1,0,,,,,,,,,,,,,904.1667037400002,904.1667037400002,904.1667037400002,904.1667037400002,905.6747945379993,905.6747945379993,905.6747945379993,905.6747945379993,905.6747945379993,905.6747945379993,905.6747945379993,905.6747945379993,repeat,letter,lettRpt,j,0.8094708370008448,noRew,,,0,906.5088939670004,,,,,,,,,,95034,2022-09-16_12h00.42.748,vts_reward_expectancy,2022.2.4,59.86118359128259,
,,,,,,,,,,,,,,,,,,,,,,,,,,,,,,,,,,,,,,,,,,36,0,36,0,,,,,,,,,,,,,,,,,,,,,,,,0,576,,,912.5151995769993,,167,S,star,0.0015340719983214512,,,,,1,0,,,,,,,,,,,,,908.9880679679991,908.9880679679991,908.9880679679991,908.9880679679991,910.4962584570003,910.4962584570003,910.4962584570003,910.4962584570003,910.4962584570003,910.4962584570003,910.4962584570003,910.4962584570003,repeat,letter,lettRpt,k,0.4850584500018158,noRew,,,0,911.0136639519988,,,,,,,,,,95034,2022-09-16_12h00.42.748,vts_reward_expectancy,2022.2.4,59.86118359128259,
,,,,,,,,,,,,,,,,,,,,,,,,,,,,,,,,,,,,,,,,,,37,0,37,0,,,,,,,,,,,,,,,,,,,,,,,,0,576,,,917.537590549,,125,F,triangle,0.0016720319999876665,,,,,1,0,,,,,,,,,,,,,913.4929363829997,913.4929363829997,913.4929363829997,913.4929363829997,915.001459002,915.001459002,915.001459002,915.001459002,915.001459002,915.001459002,915.001459002,915.001459002,switch,number,numSwt,d,1.010766160001367,noRew,,,0,916.0355780579994,,,,,,,,,,95034,2022-09-16_12h00.42.748,vts_reward_expectancy,2022.2.4,59.86118359128259,
,,,,,,,,,,,,,,,,,,,,,,,,,,,,,,,,,,,,,,,,,,38,0,38,0,,,,,,,,,,,,,,,,,,,,,,,,0,576,,,922.1758249649993,,174,D,circle,0.001672775999395526,,,,,1,0,,,,,,,,,,,,,918.5155119949995,918.5155119949995,918.5155119949995,918.5155119949995,920.0233317490001,920.0233317490001,920.0233317490001,920.0233317490001,920.0233317490001,920.0233317490001,920.0233317490001,920.0233317490001,repeat,number,numRpt,f,0.6290301730005012,noRew,,,0,920.6742314919993,,,,,,,,,,95034,2022-09-16_12h00.42.748,vts_reward_expectancy,2022.2.4,59.86118359128259,
,,,,,,,,,,,,,,,,,,,,,,,,,,,,,,,,,,,,,,,,,,39,0,39,0,,,,,,,,,,,,,,,,,,,,,,,,0,576,,,927.1480659659992,,132,U,hexagon,0.0017111889992520446,,,,,1,0,,,,,,,,,,,,,923.1537119690001,923.1537119690001,923.1537119690001,923.1537119690001,924.6620028889993,924.6620028889993,924.6620028889993,924.6620028889993,924.6620028889993,924.6620028889993,924.6620028889993,924.6620028889993,repeat,number,numRpt,d,0.9591459930015844,noRew,,,0,925.6463997030005,,,,,,,,,,95034,2022-09-16_12h00.42.748,vts_reward_expectancy,2022.2.4,59.86118359128259,
,,,,,,,,,,,,,,,,,,,,,,,,,,,,,,,,,,,,,,,,,,40,0,40,0,,,,,,,,,,,,,,,,,,,,,,,,0,576,,,932.5875754959998,,174,U,triangle,0.0013410699993983144,,,,,1,0,,,,,,,,,,,,,928.1248119209995,928.1248119209995,928.1248119209995,928.1248119209995,929.6341535169995,929.6341535169995,929.6341535169995,929.6341535169995,929.6341535169995,929.6341535169995,929.6341535169995,929.6341535169995,switch,letter,lettSwt,k,1.4262397689999489,noRew,,,0,931.0855073509993,,,,,,,,,,95034,2022-09-16_12h00.42.748,vts_reward_expectancy,2022.2.4,59.86118359128259,
,,,,,,,,,,,,,,,,,,,,,,,,,,,,,,,,,,,,,,,,,,41,0,41,0,,,,,,,,,,,,,,,,,,,,,,,,0,576,,,937.2425931649996,,125,D,star,0.002220864000264555,,,,,1,0,,,,,,,,,,,,,933.5654843929988,933.5654843929988,933.5654843929988,933.5654843929988,935.0736706560001,935.0736706560001,935.0736706560001,935.0736706560001,935.0736706560001,935.0736706560001,935.0736706560001,935.0736706560001,repeat,letter,lettRpt,j,0.642961962001209,noRew,,,0,935.7412328609989,,,,,,,,,,95034,2022-09-16_12h00.42.748,vts_reward_expectancy,2022.2.4,59.86118359128259,
,,,,,,,,,,,,,,,,,,,,,,,,,,,,,,,,,,,,,,,,,,42,0,42,0,,,,,,,,,,,,,,,,,,,,,,,,0,576,,,942.1812227199989,,160,B,star,0.0014822319990344113,,,,,0,0,,,,,,,,,,,,,938.2208719509999,938.2208719509999,938.2208719509999,938.2208719509999,939.7286151509998,939.7286151509998,939.7286151509998,939.7286151509998,939.7286151509998,939.7286151509998,939.7286151509998,939.7286151509998,switch,number,NA,d,0.9327969950008992,noRew,,,0,940.6798026879987,,,,,,,,,,95034,2022-09-16_12h00.42.748,vts_reward_expectancy,2022.2.4,59.86118359128259,
,,,,,,,,,,,,,,,,,,,,,,,,,,,,,,,,,,,,,,,,,,43,0,43,0,,,,,,,,,,,,,,,,,,,,,,,,0,576,,,946.9536153360004,,181,S,hexagon,0.0010377710004831897,,,,,1,1,,,,,,,,,,,,,943.1600894169987,943.1600894169987,943.1600894169987,943.1600894169987,944.6673734849992,944.6673734849992,944.6673734849992,944.6673734849992,944.6673734849992,944.6673734849992,944.6673734849992,944.6673734849992,repeat,number,numRpt,f,0.7528348480009299,noRew,,,0,945.4515222629998,,,,,,,,,,95034,2022-09-16_12h00.42.748,vts_reward_expectancy,2022.2.4,59.86118359128259,
,,,,,,,,,,,,,,,,,,,,,,,,,,,,,,,,,,,,,,,,,,44,0,44,0,,,,,,,,,,,,,,,,,,,,,,,,0,576,,,951.6584338720004,,139,W,hexagon,0.0013773499995295424,,,,,1,0,,,,,,,,,,,,,947.9312367250004,947.9312367250004,947.9312367250004,947.9312367250004,949.4392483319989,949.4392483319989,949.4392483319989,949.4392483319989,949.4392483319989,949.4392483319989,949.4392483319989,949.4392483319989,switch,letter,lettSwt,k,0.6855422320004436,noRew,,,0,950.157118477,,,,,,,,,,95034,2022-09-16_12h00.42.748,vts_reward_expectancy,2022.2.4,59.86118359128259,
,,,,,,,,,,,,,,,,,,,,,,,,,,,,,,,,,,,,,,,,,,45,0,45,0,,,,,,,,,,,,,,,,,,,,,,,,0,576,,,956.4468467530005,,167,F,circle,0.001549218999571167,,,,,1,0,,,,,,,,,,,,,952.635894813,952.635894813,952.635894813,952.635894813,954.1443333139996,954.1443333139996,954.1443333139996,954.1443333139996,954.1443333139996,954.1443333139996,954.1443333139996,954.1443333139996,repeat,letter,lettRpt,j,0.780322022999826,noRew,,,0,954.9453828909991,,,,,,,,,,95034,2022-09-16_12h00.42.748,vts_reward_expectancy,2022.2.4,59.86118359128259,
,,,,,,,,,,,,,,,,,,,,,,,,,,,,,,,,,,,,,,,,,,46,0,46,0,,,,,,,,,,,,,,,,,,,,,,,,0,576,,,960.9691069210003,,181,D,triangle,0.001777363000655896,,,,,1,0,,,,,,,,,,,,,957.4252473140004,957.4252473140004,957.4252473140004,957.4252473140004,958.9333460039998,958.9333460039998,958.9333460039998,958.9333460039998,958.9333460039998,958.9333460039998,958.9333460039998,958.9333460039998,repeat,letter,lettRpt,j,0.5112603670004319,noRew,,,0,959.466956754999,,,,,,,,,,95034,2022-09-16_12h00.42.748,vts_reward_expectancy,2022.2.4,59.86118359128259,
,,,,,,,,,,,,,,,,,,,,,,,,,,,,,,,,,,,,,,,,,,47,0,47,0,,,,,,,,,,,,,,,,,,,,,,,,0,576,,,965.5068332930005,,174,Y,circle,0.0016675790011504432,,,,,1,0,,,,,,,,,,,,,961.9475792069989,961.9475792069989,961.9475792069989,961.9475792069989,963.45463991,963.45463991,963.45463991,963.45463991,963.45463991,963.45463991,963.45463991,963.45463991,switch,number,numSwt,f,0.5254616610018275,noRew,,,0,964.0041555650005,,,,,,,,,,95034,2022-09-16_12h00.42.748,vts_reward_expectancy,2022.2.4,59.86118359128259,
,,,,,,,,,,,,,,,,,,,,,,,,,,,,,,,,,,,,,,,,,,48,0,48,0,,,,,,,,,,,,,,,,,,,,,,,,0,576,,,970.145934832999,,181,F,circle,0.00143853099871194,,,,,1,0,,,,,,,,,,,,,966.484965185,966.484965185,966.484965185,966.484965185,967.993052799,967.993052799,967.993052799,967.993052799,967.993052799,967.993052799,967.993052799,967.993052799,repeat,number,numRpt,f,0.6194347820000985,noRew,,,0,968.6439988980001,,,,,,,,,,95034,2022-09-16_12h00.42.748,vts_reward_expectancy,2022.2.4,59.86118359128259,
,,,,,,,,,,,,,,,,,,,,,,,,,,,,,,,,,,,,,,,,,,49,0,49,0,,,,,,,,,,,,,,,,,,,,,,,,0,576,,,974.8840395429997,,160,H,triangle,0.0013282979998621158,,,,,1,0,,,,,,,,,,,,,971.1225162190003,971.1225162190003,971.1225162190003,971.1225162190003,972.6316017239988,972.6316017239988,972.6316017239988,972.6316017239988,972.6316017239988,972.6316017239988,972.6316017239988,972.6316017239988,repeat,number,numRpt,f,0.7252440360007313,noRew,,,0,973.3826942899996,,,,,,,,,,95034,2022-09-16_12h00.42.748,vts_reward_expectancy,2022.2.4,59.86118359128259,
,,,,,,,,,,,,,,,,,,,,,,,,,,,,,,,,,,,,,,,,,,50,0,50,0,,,,,,,,,,,,,,,,,,,,,,,,0,576,,,979.4390743639997,,146,D,circle,0.0011398040005587973,,,,,1,0,,,,,,,,,,,,,975.861020069,975.861020069,975.861020069,975.861020069,977.3704392790005,977.3704392790005,977.3704392790005,977.3704392790005,977.3704392790005,977.3704392790005,977.3704392790005,977.3704392790005,switch,letter,lettSwt,j,0.5384411110007932,noRew,,,0,977.9375014199995,,,,,,,,,,95034,2022-09-16_12h00.42.748,vts_reward_expectancy,2022.2.4,59.86118359128259,
,,,,,,,,,,,,,,,,,,,,,,,,,,,,,,,,,,,,,,,,,,51,0,51,0,,,,,,,,,,,,,,,,,,,,,,,,0,576,,,984.2942204529991,,167,S,triangle,0.0017538030006107874,,,,,1,0,,,,,,,,,,,,,980.4160559470001,980.4160559470001,980.4160559470001,980.4160559470001,981.9250987619998,981.9250987619998,981.9250987619998,981.9250987619998,981.9250987619998,981.9250987619998,981.9250987619998,981.9250987619998,repeat,letter,lettRpt,k,0.8391159239999979,noRew,,,0,982.7926232169993,,,,,,,,,,95034,2022-09-16_12h00.42.748,vts_reward_expectancy,2022.2.4,59.86118359128259,
,,,,,,,,,,,,,,,,,,,,,,,,,,,,,,,,,,,,,,,,,,52,0,52,0,,,,,,,,,,,,,,,,,,,,,,,,0,576,,,989.266627560999,,132,U,star,0.0014992689993960084,,,,,1,0,,,,,,,,,,,,,985.2710689069991,985.2710689069991,985.2710689069991,985.2710689069991,986.780420866,986.780420866,986.780420866,986.780420866,986.780420866,986.780420866,986.780420866,986.780420866,repeat,letter,lettRpt,k,0.9608383160011726,noRew,,,0,987.7649894349997,,,,,,,,,,95034,2022-09-16_12h00.42.748,vts_reward_expectancy,2022.2.4,59.86118359128259,
,,,,,,,,,,,,,,,,,,,,,,,,,,,,,,,,,,,,,,,,,,53,0,53,0,,,,,,,,,,,,,,,,,,,,,,,,0,576,,,994.0888297069996,,181,D,triangle,0.0016531900000700261,,,,,0,0,,,,,,,,,,,,,990.2458386639992,990.2458386639992,990.2458386639992,990.2458386639992,991.7526762380003,991.7526762380003,991.7526762380003,991.7526762380003,991.7526762380003,991.7526762380003,991.7526762380003,991.7526762380003,switch,number,NA,d,0.8036897770016367,noRew,,,0,992.5872201009988,,,,,,,,,,95034,2022-09-16_12h00.42.748,vts_reward_expectancy,2022.2.4,59.86118359128259,
,,,,,,,,,,,,,,,,,,,,,,,,,,,,,,,,,,,,,,,,,,54,0,54,0,,,,,,,,,,,,,,,,,,,,,,,,0,576,,,999.911926376999,,125,F,star,0.0016625870011921506,,,,,1,1,,,,,,,,,,,,,995.0661975419989,995.0661975419989,995.0661975419989,995.0661975419989,996.574772824999,996.574772824999,996.574772824999,996.574772824999,996.574772824999,996.574772824999,996.574772824999,996.574772824999,switch,letter,lettSwt,j,1.8137072959998477,noRew,,,0,998.4101566110003,,,,,,,,,,95034,2022-09-16_12h00.42.748,vts_reward_expectancy,2022.2.4,59.86118359128259,
,,,,,,,,,,,,,,,,,,,,,,,,,,,,,,,,,,,,,,,,,,55,0,55,0,,,,,,,,,,,,,,,,,,,,,,,,0,576,,,1005.0005294290004,,174,H,circle,0.0016106639995996375,,,,,1,0,,,,,,,,,,,,,1000.8897557889995,1000.8897557889995,1000.8897557889995,1000.8897557889995,1002.398055529,1002.398055529,1002.398055529,1002.398055529,1002.398055529,1002.398055529,1002.398055529,1002.398055529,switch,number,numSwt,f,1.0782290590013872,noRew,,,0,1003.4989116859997,,,,,,,,,,95034,2022-09-16_12h00.42.748,vts_reward_expectancy,2022.2.4,59.86118359128259,
,,,,,,,,,,,,,,,,,,,,,,,,,,,,,,,,,,,,,,,,,,56,0,56,0,,,,,,,,,,,,,,,,,,,,,,,,0,576,,,1009.7391330779992,,181,S,star,0.0012838349994126474,,,,,1,0,,,,,,,,,,,,,1005.9780883639996,1005.9780883639996,1005.9780883639996,1005.9780883639996,1007.4866492689998,1007.4866492689998,1007.4866492689998,1007.4866492689998,1007.4866492689998,1007.4866492689998,1007.4866492689998,1007.4866492689998,repeat,number,numRpt,f,0.7185856770011014,noRew,,,0,1008.237423618999,,,,,,,,,,95034,2022-09-16_12h00.42.748,vts_reward_expectancy,2022.2.4,59.86118359128259,
