LTriangleOpac,LCircleOpac,LHexagonOpac,LStarOpac,RTriangleOpac,RCircleOpac,RHexagonOpac,RStarOpac,LShape_ID,RShape_ID,training_blocks.thisRepN,training_blocks.thisTrialN,training_blocks.thisN,training_blocks.thisIndex,training.thisRepN,training.thisTrialN,training.thisN,training.thisIndex,task1_prac_redo.thisRepN,task1_prac_redo.thisTrialN,task1_prac_redo.thisN,task1_prac_redo.thisIndex,task1_prac_trials.thisRepN,task1_prac_trials.thisTrialN,task1_prac_trials.thisN,task1_prac_trials.thisIndex,task2_prac_redo.thisRepN,task2_prac_redo.thisTrialN,task2_prac_redo.thisN,task2_prac_redo.thisIndex,task2_praac_trials.thisRepN,task2_praac_trials.thisTrialN,task2_praac_trials.thisN,task2_praac_trials.thisIndex,vts_prac_redo.thisRepN,vts_prac_redo.thisTrialN,vts_prac_redo.thisN,vts_prac_redo.thisIndex,vts_practice_trials.thisRepN,vts_practice_trials.thisTrialN,vts_practice_trials.thisN,vts_practice_trials.thisIndex,trials_norew.thisRepN,trials_norew.thisTrialN,trials_norew.thisN,trials_norew.thisIndex,block.thisRepN,block.thisTrialN,block.thisN,block.thisIndex,trials_rew.thisRepN,trials_rew.thisTrialN,trials_rew.thisN,trials_rew.thisIndex,key_resp.started,key_resp.keys,key_resp.rt,left_circle.started,right_circle.started,left_triangle.started,right_triangle.started,left_star.started,right_star.started,left_hexagon.started,right_hexagon.started,training_fix.started,training_resp.started,training_resp.keys,training_resp.rt,points_trial,points_cumul,trainBlock,training_feedback_txt.started,fix.started,training_feedback_txt.stopped,curr_topStim,curr_bottStim,curr_shape,ISI.started,tgt_fix_prac1.started,top_target_prac1.started,bott_target_prac1.started,target_resp_prac1.started,top_target_prac1.stopped,tgt_fix_prac1.stopped,bott_target_prac1.stopped,target_resp_prac1.stopped,acc,E1,target_resp_prac1.keys,pracBlock,prac_fback_text.started,prac_fback_text.stopped,fix.stopped,target_resp_prac1.rt,tgt_fix_prac2.started,top_target_prac2.started,bott_target_prac2.started,target_resp_prac2.started,top_target_prac2.stopped,tgt_fix_prac2.stopped,bott_target_prac2.stopped,target_resp_prac2.stopped,target_resp_prac2.keys,target_resp_prac2.rt,star.started,hegagon.started,triangle.started,circle.started,star.stopped,hegagon.stopped,triangle.stopped,circle.stopped,top_target.started,tgt_fix.started,bot_target.started,target_resp.started,top_target.stopped,tgt_fix.stopped,bot_target.stopped,target_resp.stopped,alt,task,condition,target_resp.keys,rewCond,vts_fback.started,vts_fback.stopped,target_resp.rt,blockNum,norew_fback.started,norew_fback.stopped,key_resp_2.keys,key_resp_2.rt,feedbk_text.started,feedbk_text.stopped,text_3.started,text_3.stopped,button.started,debrief.index,debrief.itemText,debrief.type,debrief.granularity,debrief.font,debrief.markerColor,debrief.response,debrief.rt,button.numClicks,button.timesOn,button.timesOff,participant,date,expName,psychopyVersion,frameRate,
,,,,,,,,,,,,,,,,,,,,,,,,,,,,,,,,,,,,,,,,,,,,,,,,,,,,,,62.02492086899997,space,11.036681735000002,,,,,,,,,,,,,,,,,,,,,,,,,,,,,,,,,,,,,,,,,,,,,,,,,,,,,,,,,,,,,,,,,,,,,,,,,,,,,,,,,,,,,,,,,,,,,,96409,2022-09-19_10h38.04.309,vts_reward_expectancy_OFFLINE,2022.2.4,59.96041916792314,
1,0,0,0,0,0,1,0,triangle,hexagon,0,0,0,0,0,0,0,1,,,,,,,,,,,,,,,,,,,,,,,,,,,,,,,,,,,,,,,,111.84811059599997,111.84811059599997,111.84811059599997,111.84811059599997,111.84811059599997,111.84811059599997,111.84811059599997,111.84811059599997,111.84811059599997,111.84811059599997,a,1.0059076289999211,10,10,0,112.91224685599991,114.39488792299994,,,,,,,,,,,,,,,,,,,,,,,,,,,,,,,,,,,,,,,,,,,,,,,,,,,,,,,,,,,,,,,,,,,,,,,,,,,,,96409,2022-09-19_10h38.04.309,vts_reward_expectancy_OFFLINE,2022.2.4,59.96041916792314,
0,0,0,1,0,0,1,0,star,hexagon,0,0,0,0,0,1,1,11,,,,,,,,,,,,,,,,,,,,,,,,,,,,,,,,,,,,,,,,114.89560276499992,114.89560276499992,114.89560276499992,114.89560276499992,114.89560276499992,114.89560276499992,114.89560276499992,114.89560276499992,114.89560276499992,114.89560276499992,l,0.8150000999999065,10,20,0,115.729710845,117.23150922399986,,,,,,,,,,,,,,,,,,,,,,,,,,,,,,,,,,,,,,,,,,,,,,,,,,,,,,,,,,,,,,,,,,,,,,,,,,,,,96409,2022-09-19_10h38.04.309,vts_reward_expectancy_OFFLINE,2022.2.4,59.96041916792314,
0,1,0,0,0,0,0,1,circle,star,0,0,0,0,0,2,2,5,,,,,,,,,,,,,,,,,,,,,,,,,,,,,,,,,,,,,,,,117.731930982,117.731930982,117.731930982,117.731930982,117.731930982,117.731930982,117.731930982,117.731930982,117.731930982,117.731930982,a,0.65746749799996,1,21,0,118.4160649779999,119.91772100799994,,,,,,,,,,,,,,,,,,,,,,,,,,,,,,,,,,,,,,,,,,,,,,,,,,,,,,,,,,,,,,,,,,,,,,,,,,,,,96409,2022-09-19_10h38.04.309,vts_reward_expectancy_OFFLINE,2022.2.4,59.96041916792314,
0,0,1,0,1,0,0,0,hexagon,triangle,0,0,0,0,0,3,3,6,,,,,,,,,,,,,,,,,,,,,,,,,,,,,,,,,,,,,,,,120.41792845400005,120.41792845400005,120.41792845400005,120.41792845400005,120.41792845400005,120.41792845400005,120.41792845400005,120.41792845400005,120.41792845400005,120.41792845400005,l,1.3560960209999848,10,31,0,121.803166337,123.30467535599996,,,,,,,,,,,,,,,,,,,,,,,,,,,,,,,,,,,,,,,,,,,,,,,,,,,,,,,,,,,,,,,,,,,,,,,,,,,,,96409,2022-09-19_10h38.04.309,vts_reward_expectancy_OFFLINE,2022.2.4,59.96041916792314,
1,0,0,0,0,0,0,1,triangle,star,0,0,0,0,0,4,4,2,,,,,,,,,,,,,,,,,,,,,,,,,,,,,,,,,,,,,,,,123.80536822399995,123.80536822399995,123.80536822399995,123.80536822399995,123.80536822399995,123.80536822399995,123.80536822399995,123.80536822399995,123.80536822399995,123.80536822399995,l,1.1448155309999493,10,41,0,124.97340025900007,126.47492926699988,,,,,,,,,,,,,,,,,,,,,,,,,,,,,,,,,,,,,,,,,,,,,,,,,,,,,,,,,,,,,,,,,,,,,,,,,,,,,96409,2022-09-19_10h38.04.309,vts_reward_expectancy_OFFLINE,2022.2.4,59.96041916792314,
0,0,0,1,1,0,0,0,star,triangle,0,0,0,0,0,5,5,9,,,,,,,,,,,,,,,,,,,,,,,,,,,,,,,,,,,,,,,,126.975424772,126.975424772,126.975424772,126.975424772,126.975424772,126.975424772,126.975424772,126.975424772,126.975424772,126.975424772,a,0.758977011999832,10,51,0,127.75965678700004,129.26131415999998,,,,,,,,,,,,,,,,,,,,,,,,,,,,,,,,,,,,,,,,,,,,,,,,,,,,,,,,,,,,,,,,,,,,,,,,,,,,,96409,2022-09-19_10h38.04.309,vts_reward_expectancy_OFFLINE,2022.2.4,59.96041916792314,
0,0,1,0,0,1,0,0,hexagon,circle,0,0,0,0,0,6,6,7,,,,,,,,,,,,,,,,,,,,,,,,,,,,,,,,,,,,,,,,129.76183785500007,129.76183785500007,129.76183785500007,129.76183785500007,129.76183785500007,129.76183785500007,129.76183785500007,129.76183785500007,129.76183785500007,129.76183785500007,a,1.5009378549998473,10,61,0,131.28024561300003,132.78186804200004,,,,,,,,,,,,,,,,,,,,,,,,,,,,,,,,,,,,,,,,,,,,,,,,,,,,,,,,,,,,,,,,,,,,,,,,,,,,,96409,2022-09-19_10h38.04.309,vts_reward_expectancy_OFFLINE,2022.2.4,59.96041916792314,
0,0,1,0,0,0,0,1,hexagon,star,0,0,0,0,0,7,7,8,,,,,,,,,,,,,,,,,,,,,,,,,,,,,,,,,,,,,,,,133.28231067799993,133.28231067799993,133.28231067799993,133.28231067799993,133.28231067799993,133.28231067799993,133.28231067799993,133.28231067799993,133.28231067799993,133.28231067799993,l,0.8843191509999997,1,62,0,134.18349112300007,135.68513766799992,,,,,,,,,,,,,,,,,,,,,,,,,,,,,,,,,,,,,,,,,,,,,,,,,,,,,,,,,,,,,,,,,,,,,,,,,,,,,96409,2022-09-19_10h38.04.309,vts_reward_expectancy_OFFLINE,2022.2.4,59.96041916792314,
1,0,0,0,0,1,0,0,triangle,circle,0,0,0,0,0,8,8,0,,,,,,,,,,,,,,,,,,,,,,,,,,,,,,,,,,,,,,,,136.18565889599995,136.18565889599995,136.18565889599995,136.18565889599995,136.18565889599995,136.18565889599995,136.18565889599995,136.18565889599995,136.18565889599995,136.18565889599995,a,0.7005344209999294,10,72,0,136.90307326099992,138.40479108399995,,,,,,,,,,,,,,,,,,,,,,,,,,,,,,,,,,,,,,,,,,,,,,,,,,,,,,,,,,,,,,,,,,,,,,,,,,,,,96409,2022-09-19_10h38.04.309,vts_reward_expectancy_OFFLINE,2022.2.4,59.96041916792314,
0,1,0,0,1,0,0,0,circle,triangle,0,0,0,0,0,9,9,3,,,,,,,,,,,,,,,,,,,,,,,,,,,,,,,,,,,,,,,,138.90534755299996,138.90534755299996,138.90534755299996,138.90534755299996,138.90534755299996,138.90534755299996,138.90534755299996,138.90534755299996,138.90534755299996,138.90534755299996,l,0.7171755859999394,1,73,0,139.63952845900008,141.1410890489999,,,,,,,,,,,,,,,,,,,,,,,,,,,,,,,,,,,,,,,,,,,,,,,,,,,,,,,,,,,,,,,,,,,,,,,,,,,,,96409,2022-09-19_10h38.04.309,vts_reward_expectancy_OFFLINE,2022.2.4,59.96041916792314,
0,0,0,1,0,1,0,0,star ,circle,0,0,0,0,0,10,10,10,,,,,,,,,,,,,,,,,,,,,,,,,,,,,,,,,,,,,,,,141.64176602899988,141.64176602899988,141.64176602899988,141.64176602899988,141.64176602899988,141.64176602899988,141.64176602899988,141.64176602899988,141.64176602899988,141.64176602899988,a,0.9331088829999317,1,74,0,142.59283183399998,144.09438514999988,,,,,,,,,,,,,,,,,,,,,,,,,,,,,,,,,,,,,,,,,,,,,,,,,,,,,,,,,,,,,,,,,,,,,,,,,,,,,96409,2022-09-19_10h38.04.309,vts_reward_expectancy_OFFLINE,2022.2.4,59.96041916792314,
0,1,0,0,0,0,1,0,circle,hexagon,0,0,0,0,0,11,11,4,,,,,,,,,,,,,,,,,,,,,,,,,,,,,,,,,,,,,,,,144.59488861,144.59488861,144.59488861,144.59488861,144.59488861,144.59488861,144.59488861,144.59488861,144.59488861,144.59488861,l,1.4584547469999052,10,84,0,146.07979429800002,147.581673185,,,,,,,,,,,,,,,,,,,,,,,,,,,,,,,,,,,,,,,,,,,,,,,,,,,,,,,,,,,,,,,,,,,,,,,,,,,,,96409,2022-09-19_10h38.04.309,vts_reward_expectancy_OFFLINE,2022.2.4,59.96041916792314,
0,0,0,1,1,0,0,0,star,triangle,0,0,0,0,1,0,12,9,,,,,,,,,,,,,,,,,,,,,,,,,,,,,,,,,,,,,,,,148.08220852599993,148.08220852599993,148.08220852599993,148.08220852599993,148.08220852599993,148.08220852599993,148.08220852599993,148.08220852599993,148.08220852599993,148.08220852599993,a,0.9161553010001171,1,85,0,149.01634359800005,150.51808458999994,,,,,,,,,,,,,,,,,,,,,,,,,,,,,,,,,,,,,,,,,,,,,,,,,,,,,,,,,,,,,,,,,,,,,,,,,,,,,96409,2022-09-19_10h38.04.309,vts_reward_expectancy_OFFLINE,2022.2.4,59.96041916792314,
0,0,1,0,1,0,0,0,hexagon,triangle,0,0,0,0,1,1,13,6,,,,,,,,,,,,,,,,,,,,,,,,,,,,,,,,,,,,,,,,151.01873751900007,151.01873751900007,151.01873751900007,151.01873751900007,151.01873751900007,151.01873751900007,151.01873751900007,151.01873751900007,151.01873751900007,151.01873751900007,a,0.9638121099999353,1,86,0,152.00305197199987,153.504843208,,,,,,,,,,,,,,,,,,,,,,,,,,,,,,,,,,,,,,,,,,,,,,,,,,,,,,,,,,,,,,,,,,,,,,,,,,,,,96409,2022-09-19_10h38.04.309,vts_reward_expectancy_OFFLINE,2022.2.4,59.96041916792314,
0,0,1,0,0,0,0,1,hexagon,star,0,0,0,0,1,2,14,8,,,,,,,,,,,,,,,,,,,,,,,,,,,,,,,,,,,,,,,,154.00530961599998,154.00530961599998,154.00530961599998,154.00530961599998,154.00530961599998,154.00530961599998,154.00530961599998,154.00530961599998,154.00530961599998,154.00530961599998,l,0.6089080429999285,10,96,0,154.6394008939999,156.1410770949999,,,,,,,,,,,,,,,,,,,,,,,,,,,,,,,,,,,,,,,,,,,,,,,,,,,,,,,,,,,,,,,,,,,,,,,,,,,,,96409,2022-09-19_10h38.04.309,vts_reward_expectancy_OFFLINE,2022.2.4,59.96041916792314,
1,0,0,0,0,0,1,0,triangle,hexagon,0,0,0,0,1,3,15,1,,,,,,,,,,,,,,,,,,,,,,,,,,,,,,,,,,,,,,,,156.64159786599998,156.64159786599998,156.64159786599998,156.64159786599998,156.64159786599998,156.64159786599998,156.64159786599998,156.64159786599998,156.64159786599998,156.64159786599998,l,1.4445183010000164,10,106,0,158.10980222900002,159.61149967100005,,,,,,,,,,,,,,,,,,,,,,,,,,,,,,,,,,,,,,,,,,,,,,,,,,,,,,,,,,,,,,,,,,,,,,,,,,,,,96409,2022-09-19_10h38.04.309,vts_reward_expectancy_OFFLINE,2022.2.4,59.96041916792314,
0,0,0,1,0,0,1,0,star,hexagon,0,0,0,0,1,4,16,11,,,,,,,,,,,,,,,,,,,,,,,,,,,,,,,,,,,,,,,,160.11202372599996,160.11202372599996,160.11202372599996,160.11202372599996,160.11202372599996,160.11202372599996,160.11202372599996,160.11202372599996,160.11202372599996,160.11202372599996,a,1.3740721709998525,10,116,0,161.51361840799996,163.01522518299998,,,,,,,,,,,,,,,,,,,,,,,,,,,,,,,,,,,,,,,,,,,,,,,,,,,,,,,,,,,,,,,,,,,,,,,,,,,,,96409,2022-09-19_10h38.04.309,vts_reward_expectancy_OFFLINE,2022.2.4,59.96041916792314,
0,1,0,0,0,0,0,1,circle,star,0,0,0,0,1,5,17,5,,,,,,,,,,,,,,,,,,,,,,,,,,,,,,,,,,,,,,,,163.51579174699987,163.51579174699987,163.51579174699987,163.51579174699987,163.51579174699987,163.51579174699987,163.51579174699987,163.51579174699987,163.51579174699987,163.51579174699987,l,1.1458923509999295,1,117,0,164.683975681,166.18533323499992,,,,,,,,,,,,,,,,,,,,,,,,,,,,,,,,,,,,,,,,,,,,,,,,,,,,,,,,,,,,,,,,,,,,,,,,,,,,,96409,2022-09-19_10h38.04.309,vts_reward_expectancy_OFFLINE,2022.2.4,59.96041916792314,
0,1,0,0,1,0,0,0,circle,triangle,0,0,0,0,1,6,18,3,,,,,,,,,,,,,,,,,,,,,,,,,,,,,,,,,,,,,,,,166.68598228199994,166.68598228199994,166.68598228199994,166.68598228199994,166.68598228199994,166.68598228199994,166.68598228199994,166.68598228199994,166.68598228199994,166.68598228199994,l,1.703413171999955,10,127,0,168.42128554300007,169.92288311099992,,,,,,,,,,,,,,,,,,,,,,,,,,,,,,,,,,,,,,,,,,,,,,,,,,,,,,,,,,,,,,,,,,,,,,,,,,,,,96409,2022-09-19_10h38.04.309,vts_reward_expectancy_OFFLINE,2022.2.4,59.96041916792314,
0,0,0,1,0,1,0,0,star ,circle,0,0,0,0,1,7,19,10,,,,,,,,,,,,,,,,,,,,,,,,,,,,,,,,,,,,,,,,170.42354729499993,170.42354729499993,170.42354729499993,170.42354729499993,170.42354729499993,170.42354729499993,170.42354729499993,170.42354729499993,170.42354729499993,170.42354729499993,a,0.5506198010000389,10,137,0,170.99069782900006,172.492291583,,,,,,,,,,,,,,,,,,,,,,,,,,,,,,,,,,,,,,,,,,,,,,,,,,,,,,,,,,,,,,,,,,,,,,,,,,,,,96409,2022-09-19_10h38.04.309,vts_reward_expectancy_OFFLINE,2022.2.4,59.96041916792314,
0,0,1,0,0,1,0,0,hexagon,circle,0,0,0,0,1,8,20,7,,,,,,,,,,,,,,,,,,,,,,,,,,,,,,,,,,,,,,,,172.99288578200003,172.99288578200003,172.99288578200003,172.99288578200003,172.99288578200003,172.99288578200003,172.99288578200003,172.99288578200003,172.99288578200003,172.99288578200003,l,0.8527201419999528,1,138,0,173.8779668699999,175.37894974300002,,,,,,,,,,,,,,,,,,,,,,,,,,,,,,,,,,,,,,,,,,,,,,,,,,,,,,,,,,,,,,,,,,,,,,,,,,,,,96409,2022-09-19_10h38.04.309,vts_reward_expectancy_OFFLINE,2022.2.4,59.96041916792314,
1,0,0,0,0,1,0,0,triangle,circle,0,0,0,0,1,9,21,0,,,,,,,,,,,,,,,,,,,,,,,,,,,,,,,,,,,,,,,,175.87944876999995,175.87944876999995,175.87944876999995,175.87944876999995,175.87944876999995,175.87944876999995,175.87944876999995,175.87944876999995,175.87944876999995,175.87944876999995,a,0.534336951999876,10,148,0,176.44662990999996,177.94839056,,,,,,,,,,,,,,,,,,,,,,,,,,,,,,,,,,,,,,,,,,,,,,,,,,,,,,,,,,,,,,,,,,,,,,,,,,,,,96409,2022-09-19_10h38.04.309,vts_reward_expectancy_OFFLINE,2022.2.4,59.96041916792314,
0,1,0,0,0,0,1,0,circle,hexagon,0,0,0,0,1,10,22,4,,,,,,,,,,,,,,,,,,,,,,,,,,,,,,,,,,,,,,,,178.44894858299995,178.44894858299995,178.44894858299995,178.44894858299995,178.44894858299995,178.44894858299995,178.44894858299995,178.44894858299995,178.44894858299995,178.44894858299995,l,0.7808442859998195,10,158,0,179.24973028199997,180.7514642179999,,,,,,,,,,,,,,,,,,,,,,,,,,,,,,,,,,,,,,,,,,,,,,,,,,,,,,,,,,,,,,,,,,,,,,,,,,,,,96409,2022-09-19_10h38.04.309,vts_reward_expectancy_OFFLINE,2022.2.4,59.96041916792314,
1,0,0,0,0,0,0,1,triangle,star,0,0,0,0,1,11,23,2,,,,,,,,,,,,,,,,,,,,,,,,,,,,,,,,,,,,,,,,181.252012873,181.252012873,181.252012873,181.252012873,181.252012873,181.252012873,181.252012873,181.252012873,181.252012873,181.252012873,a,0.8983567089999269,10,168,0,182.16966796799989,183.67132735899986,,,,,,,,,,,,,,,,,,,,,,,,,,,,,,,,,,,,,,,,,,,,,,,,,,,,,,,,,,,,,,,,,,,,,,,,,,,,,96409,2022-09-19_10h38.04.309,vts_reward_expectancy_OFFLINE,2022.2.4,59.96041916792314,
0,1,0,0,1,0,0,0,circle,triangle,0,0,0,0,2,0,24,3,,,,,,,,,,,,,,,,,,,,,,,,,,,,,,,,,,,,,,,,184.17186607100007,184.17186607100007,184.17186607100007,184.17186607100007,184.17186607100007,184.17186607100007,184.17186607100007,184.17186607100007,184.17186607100007,184.17186607100007,l,0.7786111869997967,10,178,0,184.97271948599996,186.47450851000008,,,,,,,,,,,,,,,,,,,,,,,,,,,,,,,,,,,,,,,,,,,,,,,,,,,,,,,,,,,,,,,,,,,,,,,,,,,,,96409,2022-09-19_10h38.04.309,vts_reward_expectancy_OFFLINE,2022.2.4,59.96041916792314,
0,0,1,0,1,0,0,0,hexagon,triangle,0,0,0,0,2,1,25,6,,,,,,,,,,,,,,,,,,,,,,,,,,,,,,,,,,,,,,,,186.97502133199987,186.97502133199987,186.97502133199987,186.97502133199987,186.97502133199987,186.97502133199987,186.97502133199987,186.97502133199987,186.97502133199987,186.97502133199987,a,0.7354332979998617,10,188,0,187.7426760819999,189.24438249499985,,,,,,,,,,,,,,,,,,,,,,,,,,,,,,,,,,,,,,,,,,,,,,,,,,,,,,,,,,,,,,,,,,,,,,,,,,,,,96409,2022-09-19_10h38.04.309,vts_reward_expectancy_OFFLINE,2022.2.4,59.96041916792314,
0,0,0,1,1,0,0,0,star,triangle,0,0,0,0,2,2,26,9,,,,,,,,,,,,,,,,,,,,,,,,,,,,,,,,,,,,,,,,189.74462527600008,189.74462527600008,189.74462527600008,189.74462527600008,189.74462527600008,189.74462527600008,189.74462527600008,189.74462527600008,189.74462527600008,189.74462527600008,l,0.8939928999998301,1,189,0,190.66232924199994,192.16385170600006,,,,,,,,,,,,,,,,,,,,,,,,,,,,,,,,,,,,,,,,,,,,,,,,,,,,,,,,,,,,,,,,,,,,,,,,,,,,,96409,2022-09-19_10h38.04.309,vts_reward_expectancy_OFFLINE,2022.2.4,59.96041916792314,
1,0,0,0,0,0,1,0,triangle,hexagon,0,0,0,0,2,3,27,1,,,,,,,,,,,,,,,,,,,,,,,,,,,,,,,,,,,,,,,,192.66443840500006,192.66443840500006,192.66443840500006,192.66443840500006,192.66443840500006,192.66443840500006,192.66443840500006,192.66443840500006,192.66443840500006,192.66443840500006,l,1.462287121999907,10,199,0,194.14939578400003,195.65128025500007,,,,,,,,,,,,,,,,,,,,,,,,,,,,,,,,,,,,,,,,,,,,,,,,,,,,,,,,,,,,,,,,,,,,,,,,,,,,,96409,2022-09-19_10h38.04.309,vts_reward_expectancy_OFFLINE,2022.2.4,59.96041916792314,
1,0,0,0,0,1,0,0,triangle,circle,0,0,0,0,2,4,28,0,,,,,,,,,,,,,,,,,,,,,,,,,,,,,,,,,,,,,,,,196.15179099800002,196.15179099800002,196.15179099800002,196.15179099800002,196.15179099800002,196.15179099800002,196.15179099800002,196.15179099800002,196.15179099800002,196.15179099800002,a,0.6784922739998365,10,209,0,196.85255149299996,198.35422885999992,,,,,,,,,,,,,,,,,,,,,,,,,,,,,,,,,,,,,,,,,,,,,,,,,,,,,,,,,,,,,,,,,,,,,,,,,,,,,96409,2022-09-19_10h38.04.309,vts_reward_expectancy_OFFLINE,2022.2.4,59.96041916792314,
0,0,1,0,0,1,0,0,hexagon,circle,0,0,0,0,2,5,29,7,,,,,,,,,,,,,,,,,,,,,,,,,,,,,,,,,,,,,,,,198.85472044199992,198.85472044199992,198.85472044199992,198.85472044199992,198.85472044199992,198.85472044199992,198.85472044199992,198.85472044199992,198.85472044199992,198.85472044199992,a,0.615937545999941,10,219,0,199.48878559299988,200.9904928379999,,,,,,,,,,,,,,,,,,,,,,,,,,,,,,,,,,,,,,,,,,,,,,,,,,,,,,,,,,,,,,,,,,,,,,,,,,,,,96409,2022-09-19_10h38.04.309,vts_reward_expectancy_OFFLINE,2022.2.4,59.96041916792314,
0,0,1,0,0,0,0,1,hexagon,star,0,0,0,0,2,6,30,8,,,,,,,,,,,,,,,,,,,,,,,,,,,,,,,,,,,,,,,,201.49100645599992,201.49100645599992,201.49100645599992,201.49100645599992,201.49100645599992,201.49100645599992,201.49100645599992,201.49100645599992,201.49100645599992,201.49100645599992,l,0.827525377000029,1,220,0,202.34200591800004,203.84370388999992,,,,,,,,,,,,,,,,,,,,,,,,,,,,,,,,,,,,,,,,,,,,,,,,,,,,,,,,,,,,,,,,,,,,,,,,,,,,,96409,2022-09-19_10h38.04.309,vts_reward_expectancy_OFFLINE,2022.2.4,59.96041916792314,
0,1,0,0,0,0,0,1,circle,star,0,0,0,0,2,7,31,5,,,,,,,,,,,,,,,,,,,,,,,,,,,,,,,,,,,,,,,,204.34410907699998,204.34410907699998,204.34410907699998,204.34410907699998,204.34410907699998,204.34410907699998,204.34410907699998,204.34410907699998,204.34410907699998,204.34410907699998,l,0.8216842409999572,10,230,0,205.19493238899986,206.69656384199993,,,,,,,,,,,,,,,,,,,,,,,,,,,,,,,,,,,,,,,,,,,,,,,,,,,,,,,,,,,,,,,,,,,,,,,,,,,,,96409,2022-09-19_10h38.04.309,vts_reward_expectancy_OFFLINE,2022.2.4,59.96041916792314,
0,0,0,1,0,0,1,0,star,hexagon,0,0,0,0,2,8,32,11,,,,,,,,,,,,,,,,,,,,,,,,,,,,,,,,,,,,,,,,207.19720865499994,207.19720865499994,207.19720865499994,207.19720865499994,207.19720865499994,207.19720865499994,207.19720865499994,207.19720865499994,207.19720865499994,207.19720865499994,a,0.4012635260000934,10,240,0,207.63104026899987,209.132640821,,,,,,,,,,,,,,,,,,,,,,,,,,,,,,,,,,,,,,,,,,,,,,,,,,,,,,,,,,,,,,,,,,,,,,,,,,,,,96409,2022-09-19_10h38.04.309,vts_reward_expectancy_OFFLINE,2022.2.4,59.96041916792314,
0,0,0,1,0,1,0,0,star ,circle,0,0,0,0,2,9,33,10,,,,,,,,,,,,,,,,,,,,,,,,,,,,,,,,,,,,,,,,209.6332950169999,209.6332950169999,209.6332950169999,209.6332950169999,209.6332950169999,209.6332950169999,209.6332950169999,209.6332950169999,209.6332950169999,209.6332950169999,a,0.508254844000021,10,250,0,210.16719697899998,211.6689323789999,,,,,,,,,,,,,,,,,,,,,,,,,,,,,,,,,,,,,,,,,,,,,,,,,,,,,,,,,,,,,,,,,,,,,,,,,,,,,96409,2022-09-19_10h38.04.309,vts_reward_expectancy_OFFLINE,2022.2.4,59.96041916792314,
0,1,0,0,0,0,1,0,circle,hexagon,0,0,0,0,2,10,34,4,,,,,,,,,,,,,,,,,,,,,,,,,,,,,,,,,,,,,,,,212.16938496900002,212.16938496900002,212.16938496900002,212.16938496900002,212.16938496900002,212.16938496900002,212.16938496900002,212.16938496900002,212.16938496900002,212.16938496900002,l,0.6364358329999504,10,260,0,212.83674897700007,214.338405858,,,,,,,,,,,,,,,,,,,,,,,,,,,,,,,,,,,,,,,,,,,,,,,,,,,,,,,,,,,,,,,,,,,,,,,,,,,,,96409,2022-09-19_10h38.04.309,vts_reward_expectancy_OFFLINE,2022.2.4,59.96041916792314,
1,0,0,0,0,0,0,1,triangle,star,0,0,0,0,2,11,35,2,,,,,,,,,,,,,,,,,,,,,,,,,,,,,,,,,,,,,,,,214.8390232459999,214.8390232459999,214.8390232459999,214.8390232459999,214.8390232459999,214.8390232459999,214.8390232459999,214.8390232459999,214.8390232459999,214.8390232459999,a,1.0632525049998094,10,270,0,215.92360387600002,217.42534384099986,,,,,,,,,,,,,,,,,,,,,,,,,,,,,,,,,,,,,,,,,,,,,,,,,,,,,,,,,,,,,,,,,,,,,,,,,,,,,96409,2022-09-19_10h38.04.309,vts_reward_expectancy_OFFLINE,2022.2.4,59.96041916792314,
1,0,0,0,0,1,0,0,triangle,circle,1,0,1,0,0,0,0,0,,,,,,,,,,,,,,,,,,,,,,,,,,,,,,,,,,,,,,,,221.53612101299996,221.53612101299996,221.53612101299996,221.53612101299996,221.53612101299996,221.53612101299996,221.53612101299996,221.53612101299996,221.53612101299996,221.53612101299996,a,0.6619629739998345,1,271,1,222.23052242699987,223.7321650219999,,,,,,,,,,,,,,,,,,,,,,,,,,,,,,,,,,,,,,,,,,,,,,,,,,,,,,,,,,,,,,,,,,,,,,,,,,,,,96409,2022-09-19_10h38.04.309,vts_reward_expectancy_OFFLINE,2022.2.4,59.96041916792314,
1,0,0,0,0,0,1,0,triangle,hexagon,1,0,1,0,0,1,1,1,,,,,,,,,,,,,,,,,,,,,,,,,,,,,,,,,,,,,,,,224.232717977,224.232717977,224.232717977,224.232717977,224.232717977,224.232717977,224.232717977,224.232717977,224.232717977,224.232717977,a,0.8620287179999195,10,281,1,225.1171321889999,226.618387386,,,,,,,,,,,,,,,,,,,,,,,,,,,,,,,,,,,,,,,,,,,,,,,,,,,,,,,,,,,,,,,,,,,,,,,,,,,,,96409,2022-09-19_10h38.04.309,vts_reward_expectancy_OFFLINE,2022.2.4,59.96041916792314,
0,0,0,1,1,0,0,0,star,triangle,1,0,1,0,0,2,2,9,,,,,,,,,,,,,,,,,,,,,,,,,,,,,,,,,,,,,,,,227.11927309399994,227.11927309399994,227.11927309399994,227.11927309399994,227.11927309399994,227.11927309399994,227.11927309399994,227.11927309399994,227.11927309399994,227.11927309399994,l,1.063491638999949,1,282,1,228.20377942100004,229.70551469199995,,,,,,,,,,,,,,,,,,,,,,,,,,,,,,,,,,,,,,,,,,,,,,,,,,,,,,,,,,,,,,,,,,,,,,,,,,,,,96409,2022-09-19_10h38.04.309,vts_reward_expectancy_OFFLINE,2022.2.4,59.96041916792314,
0,0,1,0,1,0,0,0,hexagon,triangle,1,0,1,0,0,3,3,6,,,,,,,,,,,,,,,,,,,,,,,,,,,,,,,,,,,,,,,,230.20613066700002,230.20613066700002,230.20613066700002,230.20613066700002,230.20613066700002,230.20613066700002,230.20613066700002,230.20613066700002,230.20613066700002,230.20613066700002,l,1.6403271030001179,1,283,1,231.87480385499998,233.37624465199997,,,,,,,,,,,,,,,,,,,,,,,,,,,,,,,,,,,,,,,,,,,,,,,,,,,,,,,,,,,,,,,,,,,,,,,,,,,,,96409,2022-09-19_10h38.04.309,vts_reward_expectancy_OFFLINE,2022.2.4,59.96041916792314,
0,0,1,0,0,0,0,1,hexagon,star,1,0,1,0,0,4,4,8,,,,,,,,,,,,,,,,,,,,,,,,,,,,,,,,,,,,,,,,233.87683039700005,233.87683039700005,233.87683039700005,233.87683039700005,233.87683039700005,233.87683039700005,233.87683039700005,233.87683039700005,233.87683039700005,233.87683039700005,l,0.8579022479998457,1,284,1,234.760952718,236.26260953899987,,,,,,,,,,,,,,,,,,,,,,,,,,,,,,,,,,,,,,,,,,,,,,,,,,,,,,,,,,,,,,,,,,,,,,,,,,,,,96409,2022-09-19_10h38.04.309,vts_reward_expectancy_OFFLINE,2022.2.4,59.96041916792314,
0,0,0,1,0,0,1,0,star,hexagon,1,0,1,0,0,5,5,11,,,,,,,,,,,,,,,,,,,,,,,,,,,,,,,,,,,,,,,,236.76319829699992,236.76319829699992,236.76319829699992,236.76319829699992,236.76319829699992,236.76319829699992,236.76319829699992,236.76319829699992,236.76319829699992,236.76319829699992,a,0.7466617389998191,1,285,1,237.5308912989999,239.032401209,,,,,,,,,,,,,,,,,,,,,,,,,,,,,,,,,,,,,,,,,,,,,,,,,,,,,,,,,,,,,,,,,,,,,,,,,,,,,96409,2022-09-19_10h38.04.309,vts_reward_expectancy_OFFLINE,2022.2.4,59.96041916792314,
0,1,0,0,0,0,0,1,circle,star,1,0,1,0,0,6,6,5,,,,,,,,,,,,,,,,,,,,,,,,,,,,,,,,,,,,,,,,239.53302837499996,239.53302837499996,239.53302837499996,239.53302837499996,239.53302837499996,239.53302837499996,239.53302837499996,239.53302837499996,239.53302837499996,239.53302837499996,a,1.3925634059999084,1,286,1,240.95108923899988,242.45280936599988,,,,,,,,,,,,,,,,,,,,,,,,,,,,,,,,,,,,,,,,,,,,,,,,,,,,,,,,,,,,,,,,,,,,,,,,,,,,,96409,2022-09-19_10h38.04.309,vts_reward_expectancy_OFFLINE,2022.2.4,59.96041916792314,
0,1,0,0,1,0,0,0,circle,triangle,1,0,1,0,0,7,7,3,,,,,,,,,,,,,,,,,,,,,,,,,,,,,,,,,,,,,,,,242.95364572900007,242.95364572900007,242.95364572900007,242.95364572900007,242.95364572900007,242.95364572900007,242.95364572900007,242.95364572900007,242.95364572900007,242.95364572900007,a,1.5725645510001414,1,287,1,244.55521395100004,246.05684952000001,,,,,,,,,,,,,,,,,,,,,,,,,,,,,,,,,,,,,,,,,,,,,,,,,,,,,,,,,,,,,,,,,,,,,,,,,,,,,96409,2022-09-19_10h38.04.309,vts_reward_expectancy_OFFLINE,2022.2.4,59.96041916792314,
0,0,1,0,0,1,0,0,hexagon,circle,1,0,1,0,0,8,8,7,,,,,,,,,,,,,,,,,,,,,,,,,,,,,,,,,,,,,,,,246.55740923899998,246.55740923899998,246.55740923899998,246.55740923899998,246.55740923899998,246.55740923899998,246.55740923899998,246.55740923899998,246.55740923899998,246.55740923899998,l,1.5126976300000479,1,288,1,248.09255123699995,249.59398874,,,,,,,,,,,,,,,,,,,,,,,,,,,,,,,,,,,,,,,,,,,,,,,,,,,,,,,,,,,,,,,,,,,,,,,,,,,,,96409,2022-09-19_10h38.04.309,vts_reward_expectancy_OFFLINE,2022.2.4,59.96041916792314,
0,0,0,1,0,1,0,0,star ,circle,1,0,1,0,0,9,9,10,,,,,,,,,,,,,,,,,,,,,,,,,,,,,,,,,,,,,,,,250.09460788699994,250.09460788699994,250.09460788699994,250.09460788699994,250.09460788699994,250.09460788699994,250.09460788699994,250.09460788699994,250.09460788699994,250.09460788699994,a,1.8389184999998633,1,289,1,251.96336601200005,253.4648294829999,,,,,,,,,,,,,,,,,,,,,,,,,,,,,,,,,,,,,,,,,,,,,,,,,,,,,,,,,,,,,,,,,,,,,,,,,,,,,96409,2022-09-19_10h38.04.309,vts_reward_expectancy_OFFLINE,2022.2.4,59.96041916792314,
1,0,0,0,0,0,0,1,triangle,star,1,0,1,0,0,10,10,2,,,,,,,,,,,,,,,,,,,,,,,,,,,,,,,,,,,,,,,,253.96551021300002,253.96551021300002,253.96551021300002,253.96551021300002,253.96551021300002,253.96551021300002,253.96551021300002,253.96551021300002,253.96551021300002,253.96551021300002,l,1.4005722469999,10,299,1,255.38384759199994,256.88547214999994,,,,,,,,,,,,,,,,,,,,,,,,,,,,,,,,,,,,,,,,,,,,,,,,,,,,,,,,,,,,,,,,,,,,,,,,,,,,,96409,2022-09-19_10h38.04.309,vts_reward_expectancy_OFFLINE,2022.2.4,59.96041916792314,
0,1,0,0,0,0,1,0,circle,hexagon,1,0,1,0,0,11,11,4,,,,,,,,,,,,,,,,,,,,,,,,,,,,,,,,,,,,,,,,257.386171784,257.386171784,257.386171784,257.386171784,257.386171784,257.386171784,257.386171784,257.386171784,257.386171784,257.386171784,l,1.0030882999999449,10,309,1,258.42046829599985,259.92212326000003,,,,,,,,,,,,,,,,,,,,,,,,,,,,,,,,,,,,,,,,,,,,,,,,,,,,,,,,,,,,,,,,,,,,,,,,,,,,,96409,2022-09-19_10h38.04.309,vts_reward_expectancy_OFFLINE,2022.2.4,59.96041916792314,
0,0,0,1,0,1,0,0,star ,circle,1,0,1,0,1,0,12,10,,,,,,,,,,,,,,,,,,,,,,,,,,,,,,,,,,,,,,,,260.42267464999986,260.42267464999986,260.42267464999986,260.42267464999986,260.42267464999986,260.42267464999986,260.42267464999986,260.42267464999986,260.42267464999986,260.42267464999986,a,0.41577844099992944,10,319,1,260.85656330899997,262.3582150299999,,,,,,,,,,,,,,,,,,,,,,,,,,,,,,,,,,,,,,,,,,,,,,,,,,,,,,,,,,,,,,,,,,,,,,,,,,,,,96409,2022-09-19_10h38.04.309,vts_reward_expectancy_OFFLINE,2022.2.4,59.96041916792314,
0,1,0,0,1,0,0,0,circle,triangle,1,0,1,0,1,1,13,3,,,,,,,,,,,,,,,,,,,,,,,,,,,,,,,,,,,,,,,,262.8587236829999,262.8587236829999,262.8587236829999,262.8587236829999,262.8587236829999,262.8587236829999,262.8587236829999,262.8587236829999,262.8587236829999,262.8587236829999,l,0.675131470999986,10,329,1,263.5594398420001,265.06113351199997,,,,,,,,,,,,,,,,,,,,,,,,,,,,,,,,,,,,,,,,,,,,,,,,,,,,,,,,,,,,,,,,,,,,,,,,,,,,,96409,2022-09-19_10h38.04.309,vts_reward_expectancy_OFFLINE,2022.2.4,59.96041916792314,
0,0,0,1,1,0,0,0,star,triangle,1,0,1,0,1,2,14,9,,,,,,,,,,,,,,,,,,,,,,,,,,,,,,,,,,,,,,,,265.56171268599996,265.56171268599996,265.56171268599996,265.56171268599996,265.56171268599996,265.56171268599996,265.56171268599996,265.56171268599996,265.56171268599996,265.56171268599996,a,0.5723845049999454,1,330,1,266.162478448,267.66406806500004,,,,,,,,,,,,,,,,,,,,,,,,,,,,,,,,,,,,,,,,,,,,,,,,,,,,,,,,,,,,,,,,,,,,,,,,,,,,,96409,2022-09-19_10h38.04.309,vts_reward_expectancy_OFFLINE,2022.2.4,59.96041916792314,
0,0,0,1,0,0,1,0,star,hexagon,1,0,1,0,1,3,15,11,,,,,,,,,,,,,,,,,,,,,,,,,,,,,,,,,,,,,,,,268.16459504499994,268.16459504499994,268.16459504499994,268.16459504499994,268.16459504499994,268.16459504499994,268.16459504499994,268.16459504499994,268.16459504499994,268.16459504499994,a,0.4659170370000538,10,340,1,268.64844743899994,270.14992852299997,,,,,,,,,,,,,,,,,,,,,,,,,,,,,,,,,,,,,,,,,,,,,,,,,,,,,,,,,,,,,,,,,,,,,,,,,,,,,96409,2022-09-19_10h38.04.309,vts_reward_expectancy_OFFLINE,2022.2.4,59.96041916792314,
1,0,0,0,0,1,0,0,triangle,circle,1,0,1,0,1,4,16,0,,,,,,,,,,,,,,,,,,,,,,,,,,,,,,,,,,,,,,,,270.6505959409999,270.6505959409999,270.6505959409999,270.6505959409999,270.6505959409999,270.6505959409999,270.6505959409999,270.6505959409999,270.6505959409999,270.6505959409999,l,0.7948869079998531,1,341,1,271.46814902799997,272.96982521899986,,,,,,,,,,,,,,,,,,,,,,,,,,,,,,,,,,,,,,,,,,,,,,,,,,,,,,,,,,,,,,,,,,,,,,,,,,,,,96409,2022-09-19_10h38.04.309,vts_reward_expectancy_OFFLINE,2022.2.4,59.96041916792314,
1,0,0,0,0,0,1,0,triangle,hexagon,1,0,1,0,1,5,17,1,,,,,,,,,,,,,,,,,,,,,,,,,,,,,,,,,,,,,,,,273.4704138909999,273.4704138909999,273.4704138909999,273.4704138909999,273.4704138909999,273.4704138909999,273.4704138909999,273.4704138909999,273.4704138909999,273.4704138909999,a,0.7032783199999812,1,342,1,274.20457470999986,275.70607532200006,,,,,,,,,,,,,,,,,,,,,,,,,,,,,,,,,,,,,,,,,,,,,,,,,,,,,,,,,,,,,,,,,,,,,,,,,,,,,96409,2022-09-19_10h38.04.309,vts_reward_expectancy_OFFLINE,2022.2.4,59.96041916792314,
0,0,1,0,0,1,0,0,hexagon,circle,1,0,1,0,1,6,18,7,,,,,,,,,,,,,,,,,,,,,,,,,,,,,,,,,,,,,,,,276.20673611200004,276.20673611200004,276.20673611200004,276.20673611200004,276.20673611200004,276.20673611200004,276.20673611200004,276.20673611200004,276.20673611200004,276.20673611200004,a,1.0955544559999453,1,343,1,277.324772422,278.8263420369999,,,,,,,,,,,,,,,,,,,,,,,,,,,,,,,,,,,,,,,,,,,,,,,,,,,,,,,,,,,,,,,,,,,,,,,,,,,,,96409,2022-09-19_10h38.04.309,vts_reward_expectancy_OFFLINE,2022.2.4,59.96041916792314,
0,1,0,0,0,0,1,0,circle,hexagon,1,0,1,0,1,7,19,4,,,,,,,,,,,,,,,,,,,,,,,,,,,,,,,,,,,,,,,,279.326849884,279.326849884,279.326849884,279.326849884,279.326849884,279.326849884,279.326849884,279.326849884,279.326849884,279.326849884,l,0.7024048119999406,10,353,1,280.06100626299985,281.56266032100007,,,,,,,,,,,,,,,,,,,,,,,,,,,,,,,,,,,,,,,,,,,,,,,,,,,,,,,,,,,,,,,,,,,,,,,,,,,,,96409,2022-09-19_10h38.04.309,vts_reward_expectancy_OFFLINE,2022.2.4,59.96041916792314,
0,1,0,0,0,0,0,1,circle,star,1,0,1,0,1,8,20,5,,,,,,,,,,,,,,,,,,,,,,,,,,,,,,,,,,,,,,,,282.0632170209999,282.0632170209999,282.0632170209999,282.0632170209999,282.0632170209999,282.0632170209999,282.0632170209999,282.0632170209999,282.0632170209999,282.0632170209999,l,0.7434724750000896,1,354,1,282.83076538599994,284.33243507399993,,,,,,,,,,,,,,,,,,,,,,,,,,,,,,,,,,,,,,,,,,,,,,,,,,,,,,,,,,,,,,,,,,,,,,,,,,,,,96409,2022-09-19_10h38.04.309,vts_reward_expectancy_OFFLINE,2022.2.4,59.96041916792314,
1,0,0,0,0,0,0,1,triangle,star,1,0,1,0,1,9,21,2,,,,,,,,,,,,,,,,,,,,,,,,,,,,,,,,,,,,,,,,284.8329683249999,284.8329683249999,284.8329683249999,284.8329683249999,284.8329683249999,284.8329683249999,284.8329683249999,284.8329683249999,284.8329683249999,284.8329683249999,l,0.8687777729999198,1,355,1,285.734052021,287.2357538890001,,,,,,,,,,,,,,,,,,,,,,,,,,,,,,,,,,,,,,,,,,,,,,,,,,,,,,,,,,,,,,,,,,,,,,,,,,,,,96409,2022-09-19_10h38.04.309,vts_reward_expectancy_OFFLINE,2022.2.4,59.96041916792314,
0,0,1,0,0,0,0,1,hexagon,star,1,0,1,0,1,10,22,8,,,,,,,,,,,,,,,,,,,,,,,,,,,,,,,,,,,,,,,,287.73619664500006,287.73619664500006,287.73619664500006,287.73619664500006,287.73619664500006,287.73619664500006,287.73619664500006,287.73619664500006,287.73619664500006,287.73619664500006,l,1.8463158039999144,1,356,1,289.60488761099987,291.1065297129999,,,,,,,,,,,,,,,,,,,,,,,,,,,,,,,,,,,,,,,,,,,,,,,,,,,,,,,,,,,,,,,,,,,,,,,,,,,,,96409,2022-09-19_10h38.04.309,vts_reward_expectancy_OFFLINE,2022.2.4,59.96041916792314,
0,0,1,0,1,0,0,0,hexagon,triangle,1,0,1,0,1,11,23,6,,,,,,,,,,,,,,,,,,,,,,,,,,,,,,,,,,,,,,,,291.6071234230001,291.6071234230001,291.6071234230001,291.6071234230001,291.6071234230001,291.6071234230001,291.6071234230001,291.6071234230001,291.6071234230001,291.6071234230001,a,1.0154822130000412,10,366,1,292.6415960009999,294.1432026529999,,,,,,,,,,,,,,,,,,,,,,,,,,,,,,,,,,,,,,,,,,,,,,,,,,,,,,,,,,,,,,,,,,,,,,,,,,,,,96409,2022-09-19_10h38.04.309,vts_reward_expectancy_OFFLINE,2022.2.4,59.96041916792314,
0,1,0,0,0,0,1,0,circle,hexagon,1,0,1,0,2,0,24,4,,,,,,,,,,,,,,,,,,,,,,,,,,,,,,,,,,,,,,,,294.64372936899986,294.64372936899986,294.64372936899986,294.64372936899986,294.64372936899986,294.64372936899986,294.64372936899986,294.64372936899986,294.64372936899986,294.64372936899986,l,0.7462176930000624,10,376,1,295.41120915099987,296.913030491,,,,,,,,,,,,,,,,,,,,,,,,,,,,,,,,,,,,,,,,,,,,,,,,,,,,,,,,,,,,,,,,,,,,,,,,,,,,,96409,2022-09-19_10h38.04.309,vts_reward_expectancy_OFFLINE,2022.2.4,59.96041916792314,
1,0,0,0,0,1,0,0,triangle,circle,1,0,1,0,2,1,25,0,,,,,,,,,,,,,,,,,,,,,,,,,,,,,,,,,,,,,,,,297.4133963909999,297.4133963909999,297.4133963909999,297.4133963909999,297.4133963909999,297.4133963909999,297.4133963909999,297.4133963909999,297.4133963909999,297.4133963909999,a,0.7204224949998661,10,386,1,298.16427604699993,299.6659696649999,,,,,,,,,,,,,,,,,,,,,,,,,,,,,,,,,,,,,,,,,,,,,,,,,,,,,,,,,,,,,,,,,,,,,,,,,,,,,96409,2022-09-19_10h38.04.309,vts_reward_expectancy_OFFLINE,2022.2.4,59.96041916792314,
0,0,0,1,0,0,1,0,star,hexagon,1,0,1,0,2,2,26,11,,,,,,,,,,,,,,,,,,,,,,,,,,,,,,,,,,,,,,,,300.166534254,300.166534254,300.166534254,300.166534254,300.166534254,300.166534254,300.166534254,300.166534254,300.166534254,300.166534254,a,0.6157456599999023,10,396,1,300.800507941,302.30235931900006,,,,,,,,,,,,,,,,,,,,,,,,,,,,,,,,,,,,,,,,,,,,,,,,,,,,,,,,,,,,,,,,,,,,,,,,,,,,,96409,2022-09-19_10h38.04.309,vts_reward_expectancy_OFFLINE,2022.2.4,59.96041916792314,
0,0,0,1,0,1,0,0,star ,circle,1,0,1,0,2,3,27,10,,,,,,,,,,,,,,,,,,,,,,,,,,,,,,,,,,,,,,,,302.802899349,302.802899349,302.802899349,302.802899349,302.802899349,302.802899349,302.802899349,302.802899349,302.802899349,302.802899349,a,0.6676357379999445,10,406,1,303.486851981,304.988498057,304.988498057,,,,,,,,,,,,,,,,,,,,,,,,,,,,,,,,,,,,,,,,,,,,,,,,,,,,,,,,,,,,,,,,,,,,,,,,,,,,96409,2022-09-19_10h38.04.309,vts_reward_expectancy_OFFLINE,2022.2.4,59.96041916792314,
0,0,0,1,1,0,0,0,star,triangle,1,0,1,0,2,4,28,9,,,,,,,,,,,,,,,,,,,,,,,,,,,,,,,,,,,,,,,,305.48905360899994,305.48905360899994,305.48905360899994,305.48905360899994,305.48905360899994,305.48905360899994,305.48905360899994,305.48905360899994,305.48905360899994,305.48905360899994,a,0.6846621409997624,1,407,1,306.20646590599995,307.70809838399987,,,,,,,,,,,,,,,,,,,,,,,,,,,,,,,,,,,,,,,,,,,,,,,,,,,,,,,,,,,,,,,,,,,,,,,,,,,,,96409,2022-09-19_10h38.04.309,vts_reward_expectancy_OFFLINE,2022.2.4,59.96041916792314,
0,0,1,0,1,0,0,0,hexagon,triangle,1,0,1,0,2,5,29,6,,,,,,,,,,,,,,,,,,,,,,,,,,,,,,,,,,,,,,,,308.2082721940001,308.2082721940001,308.2082721940001,308.2082721940001,308.2082721940001,308.2082721940001,308.2082721940001,308.2082721940001,308.2082721940001,308.2082721940001,a,1.2059211199998572,10,417,1,309.44323944200005,310.94519521200004,,,,,,,,,,,,,,,,,,,,,,,,,,,,,,,,,,,,,,,,,,,,,,,,,,,,,,,,,,,,,,,,,,,,,,,,,,,,,96409,2022-09-19_10h38.04.309,vts_reward_expectancy_OFFLINE,2022.2.4,59.96041916792314,
0,1,0,0,0,0,0,1,circle,star,1,0,1,0,2,6,30,5,,,,,,,,,,,,,,,,,,,,,,,,,,,,,,,,,,,,,,,,311.4456790290001,311.4456790290001,311.4456790290001,311.4456790290001,311.4456790290001,311.4456790290001,311.4456790290001,311.4456790290001,311.4456790290001,311.4456790290001,l,0.8166131339999083,1,418,1,312.280032979,313.78156154199996,,,,,,,,,,,,,,,,,,,,,,,,,,,,,,,,,,,,,,,,,,,,,,,,,,,,,,,,,,,,,,,,,,,,,,,,,,,,,96409,2022-09-19_10h38.04.309,vts_reward_expectancy_OFFLINE,2022.2.4,59.96041916792314,
0,1,0,0,1,0,0,0,circle,triangle,1,0,1,0,2,7,31,3,,,,,,,,,,,,,,,,,,,,,,,,,,,,,,,,,,,,,,,,314.2814790990001,314.2814790990001,314.2814790990001,314.2814790990001,314.2814790990001,314.2814790990001,314.2814790990001,314.2814790990001,314.2814790990001,314.2814790990001,l,0.5966550820000975,1,419,1,314.89940122999997,316.4011592029999,,,,,,,,,,,,,,,,,,,,,,,,,,,,,,,,,,,,,,,,,,,,,,,,,,,,,,,,,,,,,,,,,,,,,,,,,,,,,96409,2022-09-19_10h38.04.309,vts_reward_expectancy_OFFLINE,2022.2.4,59.96041916792314,
1,0,0,0,0,0,0,1,triangle,star,1,0,1,0,2,8,32,2,,,,,,,,,,,,,,,,,,,,,,,,,,,,,,,,,,,,,,,,316.901578063,316.901578063,316.901578063,316.901578063,316.901578063,316.901578063,316.901578063,316.901578063,316.901578063,316.901578063,l,0.4489661370000704,1,420,1,317.36877566499993,318.8705128639999,,,,,,,,,,,,,,,,,,,,,,,,,,,,,,,,,,,,,,,,,,,,,,,,,,,,,,,,,,,,,,,,,,,,,,,,,,,,,96409,2022-09-19_10h38.04.309,vts_reward_expectancy_OFFLINE,2022.2.4,59.96041916792314,
0,0,1,0,0,1,0,0,hexagon,circle,1,0,1,0,2,9,33,7,,,,,,,,,,,,,,,,,,,,,,,,,,,,,,,,,,,,,,,,319.37098116900006,319.37098116900006,319.37098116900006,319.37098116900006,319.37098116900006,319.37098116900006,319.37098116900006,319.37098116900006,319.37098116900006,319.37098116900006,a,0.05052154800000608,10,430,1,319.45445982399997,320.9560985620001,,,,,,,,,,,,,,,,,,,,,,,,,,,,,,,,,,,,,,,,,,,,,,,,,,,,,,,,,,,,,,,,,,,,,,,,,,,,,96409,2022-09-19_10h38.04.309,vts_reward_expectancy_OFFLINE,2022.2.4,59.96041916792314,
0,0,1,0,0,0,0,1,hexagon,star,1,0,1,0,2,10,34,8,,,,,,,,,,,,,,,,,,,,,,,,,,,,,,,,,,,,,,,,321.4566806,321.4566806,321.4566806,321.4566806,321.4566806,321.4566806,321.4566806,321.4566806,321.4566806,321.4566806,l,0.6535835550000684,10,440,1,322.14070024500006,323.64248190800004,,,,,,,,,,,,,,,,,,,,,,,,,,,,,,,,,,,,,,,,,,,,,,,,,,,,,,,,,,,,,,,,,,,,,,,,,,,,,96409,2022-09-19_10h38.04.309,vts_reward_expectancy_OFFLINE,2022.2.4,59.96041916792314,
1,0,0,0,0,0,1,0,triangle,hexagon,1,0,1,0,2,11,35,1,,,,,,,,,,,,,,,,,,,,,,,,,,,,,,,,,,,,,,,,324.142921482,324.142921482,324.142921482,324.142921482,324.142921482,324.142921482,324.142921482,324.142921482,324.142921482,324.142921482,a,0.27126142599991,10,450,1,324.44329961699987,325.9451203179999,,,,,,,,,,,,,,,,,,,,,,,,,,,,,,,,,,,,,,,,,,,,,,,,,,,,,,,,,,,,,,,,,,,,,,,,,,,,,96409,2022-09-19_10h38.04.309,vts_reward_expectancy_OFFLINE,2022.2.4,59.96041916792314,
0,0,1,0,1,0,0,0,hexagon,triangle,2,0,2,0,0,0,0,6,,,,,,,,,,,,,,,,,,,,,,,,,,,,,,,,,,,,,,,,346.290707547,346.290707547,346.290707547,346.290707547,346.290707547,346.290707547,346.290707547,346.290707547,346.290707547,346.290707547,l,1.4834314729998823,1,451,2,347.802369277,349.30397881499994,,,,,,,,,,,,,,,,,,,,,,,,,,,,,,,,,,,,,,,,,,,,,,,,,,,,,,,,,,,,,,,,,,,,,,,,,,,,,96409,2022-09-19_10h38.04.309,vts_reward_expectancy_OFFLINE,2022.2.4,59.96041916792314,
0,1,0,0,1,0,0,0,circle,triangle,2,0,2,0,0,1,1,3,,,,,,,,,,,,,,,,,,,,,,,,,,,,,,,,,,,,,,,,349.804269817,349.804269817,349.804269817,349.804269817,349.804269817,349.804269817,349.804269817,349.804269817,349.804269817,349.804269817,l,1.505023342999948,10,461,2,351.339581965,352.84128501500004,,,,,,,,,,,,,,,,,,,,,,,,,,,,,,,,,,,,,,,,,,,,,,,,,,,,,,,,,,,,,,,,,,,,,,,,,,,,,96409,2022-09-19_10h38.04.309,vts_reward_expectancy_OFFLINE,2022.2.4,59.96041916792314,
0,0,0,1,0,1,0,0,star ,circle,2,0,2,0,0,2,2,10,,,,,,,,,,,,,,,,,,,,,,,,,,,,,,,,,,,,,,,,353.341774428,353.341774428,353.341774428,353.341774428,353.341774428,353.341774428,353.341774428,353.341774428,353.341774428,353.341774428,a,0.44883259900007033,10,471,2,353.809025756,355.3107120510001,,,,,,,,,,,,,,,,,,,,,,,,,,,,,,,,,,,,,,,,,,,,,,,,,,,,,,,,,,,,,,,,,,,,,,,,,,,,,96409,2022-09-19_10h38.04.309,vts_reward_expectancy_OFFLINE,2022.2.4,59.96041916792314,
0,1,0,0,0,0,0,1,circle,star,2,0,2,0,0,3,3,5,,,,,,,,,,,,,,,,,,,,,,,,,,,,,,,,,,,,,,,,355.811362315,355.811362315,355.811362315,355.811362315,355.811362315,355.811362315,355.811362315,355.811362315,355.811362315,355.811362315,l,0.4112393649998012,10,481,2,356.2450893439998,357.7469300519999,,,,,,,,,,,,,,,,,,,,,,,,,,,,,,,,,,,,,,,,,,,,,,,,,,,,,,,,,,,,,,,,,,,,,,,,,,,,,96409,2022-09-19_10h38.04.309,vts_reward_expectancy_OFFLINE,2022.2.4,59.96041916792314,
0,0,0,1,1,0,0,0,star,triangle,2,0,2,0,0,4,4,9,,,,,,,,,,,,,,,,,,,,,,,,,,,,,,,,,,,,,,,,358.24717014700013,358.24717014700013,358.24717014700013,358.24717014700013,358.24717014700013,358.24717014700013,358.24717014700013,358.24717014700013,358.24717014700013,358.24717014700013,a,0.3751839869996729,1,482,2,358.6477335339998,360.1492882690002,,,,,,,,,,,,,,,,,,,,,,,,,,,,,,,,,,,,,,,,,,,,,,,,,,,,,,,,,,,,,,,,,,,,,,,,,,,,,96409,2022-09-19_10h38.04.309,vts_reward_expectancy_OFFLINE,2022.2.4,59.96041916792314,
0,0,1,0,0,0,0,1,hexagon,star,2,0,2,0,0,5,5,8,,,,,,,,,,,,,,,,,,,,,,,,,,,,,,,,,,,,,,,,360.64992892899977,360.64992892899977,360.64992892899977,360.64992892899977,360.64992892899977,360.64992892899977,360.64992892899977,360.64992892899977,360.64992892899977,360.64992892899977,l,0.451471975000004,10,492,2,361.13387059599995,362.63548433699975,,,,,,,,,,,,,,,,,,,,,,,,,,,,,,,,,,,,,,,,,,,,,,,,,,,,,,,,,,,,,,,,,,,,,,,,,,,,,96409,2022-09-19_10h38.04.309,vts_reward_expectancy_OFFLINE,2022.2.4,59.96041916792314,
1,0,0,0,0,0,0,1,triangle,star,2,0,2,0,0,6,6,2,,,,,,,,,,,,,,,,,,,,,,,,,,,,,,,,,,,,,,,,363.1359040310001,363.1359040310001,363.1359040310001,363.1359040310001,363.1359040310001,363.1359040310001,363.1359040310001,363.1359040310001,363.1359040310001,363.1359040310001,l,0.654357341999912,1,493,2,363.820050389,365.32182418499974,,,,,,,,,,,,,,,,,,,,,,,,,,,,,,,,,,,,,,,,,,,,,,,,,,,,,,,,,,,,,,,,,,,,,,,,,,,,,96409,2022-09-19_10h38.04.309,vts_reward_expectancy_OFFLINE,2022.2.4,59.96041916792314,
0,1,0,0,0,0,1,0,circle,hexagon,2,0,2,0,0,7,7,4,,,,,,,,,,,,,,,,,,,,,,,,,,,,,,,,,,,,,,,,365.8224025860002,365.8224025860002,365.8224025860002,365.8224025860002,365.8224025860002,365.8224025860002,365.8224025860002,365.8224025860002,365.8224025860002,365.8224025860002,l,0.7517632869999034,10,503,2,366.6065688790002,368.1081468059999,,,,,,,,,,,,,,,,,,,,,,,,,,,,,,,,,,,,,,,,,,,,,,,,,,,,,,,,,,,,,,,,,,,,,,,,,,,,,96409,2022-09-19_10h38.04.309,vts_reward_expectancy_OFFLINE,2022.2.4,59.96041916792314,
1,0,0,0,0,0,1,0,triangle,hexagon,2,0,2,0,0,8,8,1,,,,,,,,,,,,,,,,,,,,,,,,,,,,,,,,,,,,,,,,368.6086788330001,368.6086788330001,368.6086788330001,368.6086788330001,368.6086788330001,368.6086788330001,368.6086788330001,368.6086788330001,368.6086788330001,368.6086788330001,l,1.4854264529999455,10,513,2,370.127191714,371.62878562599985,,,,,,,,,,,,,,,,,,,,,,,,,,,,,,,,,,,,,,,,,,,,,,,,,,,,,,,,,,,,,,,,,,,,,,,,,,,,,96409,2022-09-19_10h38.04.309,vts_reward_expectancy_OFFLINE,2022.2.4,59.96041916792314,
0,0,0,1,0,0,1,0,star,hexagon,2,0,2,0,0,9,9,11,,,,,,,,,,,,,,,,,,,,,,,,,,,,,,,,,,,,,,,,372.12930421399983,372.12930421399983,372.12930421399983,372.12930421399983,372.12930421399983,372.12930421399983,372.12930421399983,372.12930421399983,372.12930421399983,372.12930421399983,a,1.1247140649998073,1,514,2,373.2805931529999,374.7821718540001,,,,,,,,,,,,,,,,,,,,,,,,,,,,,,,,,,,,,,,,,,,,,,,,,,,,,,,,,,,,,,,,,,,,,,,,,,,,,96409,2022-09-19_10h38.04.309,vts_reward_expectancy_OFFLINE,2022.2.4,59.96041916792314,
1,0,0,0,0,1,0,0,triangle,circle,2,0,2,0,0,10,10,0,,,,,,,,,,,,,,,,,,,,,,,,,,,,,,,,,,,,,,,,375.2826871740001,375.2826871740001,375.2826871740001,375.2826871740001,375.2826871740001,375.2826871740001,375.2826871740001,375.2826871740001,375.2826871740001,375.2826871740001,a,0.6997165640000276,1,515,2,376.0000968080001,377.50175246799995,,,,,,,,,,,,,,,,,,,,,,,,,,,,,,,,,,,,,,,,,,,,,,,,,,,,,,,,,,,,,,,,,,,,,,,,,,,,,96409,2022-09-19_10h38.04.309,vts_reward_expectancy_OFFLINE,2022.2.4,59.96041916792314,
0,0,1,0,0,1,0,0,hexagon,circle,2,0,2,0,0,11,11,7,,,,,,,,,,,,,,,,,,,,,,,,,,,,,,,,,,,,,,,,378.0023163899998,378.0023163899998,378.0023163899998,378.0023163899998,378.0023163899998,378.0023163899998,378.0023163899998,378.0023163899998,378.0023163899998,378.0023163899998,a,0.5634646889998294,10,525,2,378.58621831000005,380.08797900000013,,,,,,,,,,,,,,,,,,,,,,,,,,,,,,,,,,,,,,,,,,,,,,,,,,,,,,,,,,,,,,,,,,,,,,,,,,,,,96409,2022-09-19_10h38.04.309,vts_reward_expectancy_OFFLINE,2022.2.4,59.96041916792314,
1,0,0,0,0,1,0,0,triangle,circle,2,0,2,0,1,0,12,0,,,,,,,,,,,,,,,,,,,,,,,,,,,,,,,,,,,,,,,,380.5885380719999,380.5885380719999,380.5885380719999,380.5885380719999,380.5885380719999,380.5885380719999,380.5885380719999,380.5885380719999,380.5885380719999,380.5885380719999,a,0.5526945649999107,1,526,2,381.1726621969999,382.67413979399976,,,,,,,,,,,,,,,,,,,,,,,,,,,,,,,,,,,,,,,,,,,,,,,,,,,,,,,,,,,,,,,,,,,,,,,,,,,,,96409,2022-09-19_10h38.04.309,vts_reward_expectancy_OFFLINE,2022.2.4,59.96041916792314,
0,1,0,0,1,0,0,0,circle,triangle,2,0,2,0,1,1,13,3,,,,,,,,,,,,,,,,,,,,,,,,,,,,,,,,,,,,,,,,383.1748251450001,383.1748251450001,383.1748251450001,383.1748251450001,383.1748251450001,383.1748251450001,383.1748251450001,383.1748251450001,383.1748251450001,383.1748251450001,l,0.47119300199983627,1,527,2,383.6754380589998,385.1769516040001,,,,,,,,,,,,,,,,,,,,,,,,,,,,,,,,,,,,,,,,,,,,,,,,,,,,,,,,,,,,,,,,,,,,,,,,,,,,,96409,2022-09-19_10h38.04.309,vts_reward_expectancy_OFFLINE,2022.2.4,59.96041916792314,
0,0,1,0,1,0,0,0,hexagon,triangle,2,0,2,0,1,2,14,6,,,,,,,,,,,,,,,,,,,,,,,,,,,,,,,,,,,,,,,,385.677554181,385.677554181,385.677554181,385.677554181,385.677554181,385.677554181,385.677554181,385.677554181,385.677554181,385.677554181,l,0.5610441880003236,10,537,2,386.26137686200013,387.76316808299975,,,,,,,,,,,,,,,,,,,,,,,,,,,,,,,,,,,,,,,,,,,,,,,,,,,,,,,,,,,,,,,,,,,,,,,,,,,,,96409,2022-09-19_10h38.04.309,vts_reward_expectancy_OFFLINE,2022.2.4,59.96041916792314,
1,0,0,0,0,0,0,1,triangle,star,2,0,2,0,1,3,15,2,,,,,,,,,,,,,,,,,,,,,,,,,,,,,,,,,,,,,,,,388.2636334900001,388.2636334900001,388.2636334900001,388.2636334900001,388.2636334900001,388.2636334900001,388.2636334900001,388.2636334900001,388.2636334900001,388.2636334900001,a,0.7667911120001918,10,547,2,389.04783414100007,390.5494908359999,,,,,,,,,,,,,,,,,,,,,,,,,,,,,,,,,,,,,,,,,,,,,,,,,,,,,,,,,,,,,,,,,,,,,,,,,,,,,96409,2022-09-19_10h38.04.309,vts_reward_expectancy_OFFLINE,2022.2.4,59.96041916792314,
0,1,0,0,0,0,1,0,circle,hexagon,2,0,2,0,1,4,16,4,,,,,,,,,,,,,,,,,,,,,,,,,,,,,,,,,,,,,,,,391.05008519399985,391.05008519399985,391.05008519399985,391.05008519399985,391.05008519399985,391.05008519399985,391.05008519399985,391.05008519399985,391.05008519399985,391.05008519399985,l,0.7007697929998358,10,557,2,391.767533985,393.269218054,,,,,,,,,,,,,,,,,,,,,,,,,,,,,,,,,,,,,,,,,,,,,,,,,,,,,,,,,,,,,,,,,,,,,,,,,,,,,96409,2022-09-19_10h38.04.309,vts_reward_expectancy_OFFLINE,2022.2.4,59.96041916792314,
1,0,0,0,0,0,1,0,triangle,hexagon,2,0,2,0,1,5,17,1,,,,,,,,,,,,,,,,,,,,,,,,,,,,,,,,,,,,,,,,393.76969166000003,393.76969166000003,393.76969166000003,393.76969166000003,393.76969166000003,393.76969166000003,393.76969166000003,393.76969166000003,393.76969166000003,393.76969166000003,l,0.9804894609997064,1,558,2,394.77092184900016,396.2726347,,,,,,,,,,,,,,,,,,,,,,,,,,,,,,,,,,,,,,,,,,,,,,,,,,,,,,,,,,,,,,,,,,,,,,,,,,,,,96409,2022-09-19_10h38.04.309,vts_reward_expectancy_OFFLINE,2022.2.4,59.96041916792314,
0,1,0,0,0,0,0,1,circle,star,2,0,2,0,1,6,18,5,,,,,,,,,,,,,,,,,,,,,,,,,,,,,,,,,,,,,,,,396.7732429340001,396.7732429340001,396.7732429340001,396.7732429340001,396.7732429340001,396.7732429340001,396.7732429340001,396.7732429340001,396.7732429340001,396.7732429340001,a,0.9205990450000172,1,559,2,397.72410485099977,399.22571122600016,,,,,,,,,,,,,,,,,,,,,,,,,,,,,,,,,,,,,,,,,,,,,,,,,,,,,,,,,,,,,,,,,,,,,,,,,,,,,96409,2022-09-19_10h38.04.309,vts_reward_expectancy_OFFLINE,2022.2.4,59.96041916792314,
0,0,1,0,0,0,0,1,hexagon,star,2,0,2,0,1,7,19,8,,,,,,,,,,,,,,,,,,,,,,,,,,,,,,,,,,,,,,,,399.72569588500005,399.72569588500005,399.72569588500005,399.72569588500005,399.72569588500005,399.72569588500005,399.72569588500005,399.72569588500005,399.72569588500005,399.72569588500005,l,0.43267395499970007,1,560,2,400.1768863519999,401.6784985040001,,,,,,,,,,,,,,,,,,,,,,,,,,,,,,,,,,,,,,,,,,,,,,,,,,,,,,,,,,,,,,,,,,,,,,,,,,,,,96409,2022-09-19_10h38.04.309,vts_reward_expectancy_OFFLINE,2022.2.4,59.96041916792314,
0,0,0,1,1,0,0,0,star,triangle,2,0,2,0,1,8,20,9,,,,,,,,,,,,,,,,,,,,,,,,,,,,,,,,,,,,,,,,402.178976334,402.178976334,402.178976334,402.178976334,402.178976334,402.178976334,402.178976334,402.178976334,402.178976334,402.178976334,a,0.5549739289995159,10,570,2,402.76303017199984,404.26460914999984,,,,,,,,,,,,,,,,,,,,,,,,,,,,,,,,,,,,,,,,,,,,,,,,,,,,,,,,,,,,,,,,,,,,,,,,,,,,,96409,2022-09-19_10h38.04.309,vts_reward_expectancy_OFFLINE,2022.2.4,59.96041916792314,
0,0,0,1,0,1,0,0,star ,circle,2,0,2,0,1,9,21,10,,,,,,,,,,,,,,,,,,,,,,,,,,,,,,,,,,,,,,,,404.7652850779998,404.7652850779998,404.7652850779998,404.7652850779998,404.7652850779998,404.7652850779998,404.7652850779998,404.7652850779998,404.7652850779998,404.7652850779998,a,0.5365423220000594,10,580,2,405.3324505369999,406.8342140359998,,,,,,,,,,,,,,,,,,,,,,,,,,,,,,,,,,,,,,,,,,,,,,,,,,,,,,,,,,,,,,,,,,,,,,,,,,,,,96409,2022-09-19_10h38.04.309,vts_reward_expectancy_OFFLINE,2022.2.4,59.96041916792314,
0,0,0,1,0,0,1,0,star,hexagon,2,0,2,0,1,10,22,11,,,,,,,,,,,,,,,,,,,,,,,,,,,,,,,,,,,,,,,,407.33483279300003,407.33483279300003,407.33483279300003,407.33483279300003,407.33483279300003,407.33483279300003,407.33483279300003,407.33483279300003,407.33483279300003,407.33483279300003,a,0.9672963180000806,1,581,2,408.319184318,409.82090093600004,,,,,,,,,,,,,,,,,,,,,,,,,,,,,,,,,,,,,,,,,,,,,,,,,,,,,,,,,,,,,,,,,,,,,,,,,,,,,96409,2022-09-19_10h38.04.309,vts_reward_expectancy_OFFLINE,2022.2.4,59.96041916792314,
0,0,1,0,0,1,0,0,hexagon,circle,2,0,2,0,1,11,23,7,,,,,,,,,,,,,,,,,,,,,,,,,,,,,,,,,,,,,,,,410.32149249400004,410.32149249400004,410.32149249400004,410.32149249400004,410.32149249400004,410.32149249400004,410.32149249400004,410.32149249400004,410.32149249400004,410.32149249400004,a,0.7408484140000837,10,591,2,411.0889352500001,412.59056097300004,,,,,,,,,,,,,,,,,,,,,,,,,,,,,,,,,,,,,,,,,,,,,,,,,,,,,,,,,,,,,,,,,,,,,,,,,,,,,96409,2022-09-19_10h38.04.309,vts_reward_expectancy_OFFLINE,2022.2.4,59.96041916792314,
1,0,0,0,0,0,0,1,triangle,star,2,0,2,0,2,0,24,2,,,,,,,,,,,,,,,,,,,,,,,,,,,,,,,,,,,,,,,,413.09105562399986,413.09105562399986,413.09105562399986,413.09105562399986,413.09105562399986,413.09105562399986,413.09105562399986,413.09105562399986,413.09105562399986,413.09105562399986,l,0.4435229219998291,1,592,2,413.55835859900003,415.060151164,,,,,,,,,,,,,,,,,,,,,,,,,,,,,,,,,,,,,,,,,,,,,,,,,,,,,,,,,,,,,,,,,,,,,,,,,,,,,96409,2022-09-19_10h38.04.309,vts_reward_expectancy_OFFLINE,2022.2.4,59.96041916792314,
0,0,1,0,0,0,0,1,hexagon,star,2,0,2,0,2,1,25,8,,,,,,,,,,,,,,,,,,,,,,,,,,,,,,,,,,,,,,,,415.56051579500013,415.56051579500013,415.56051579500013,415.56051579500013,415.56051579500013,415.56051579500013,415.56051579500013,415.56051579500013,415.56051579500013,415.56051579500013,l,0.45291282600010163,1,593,2,416.04442045300016,417.54593116599995,,,,,,,,,,,,,,,,,,,,,,,,,,,,,,,,,,,,,,,,,,,,,,,,,,,,,,,,,,,,,,,,,,,,,,,,,,,,,96409,2022-09-19_10h38.04.309,vts_reward_expectancy_OFFLINE,2022.2.4,59.96041916792314,
0,0,1,0,1,0,0,0,hexagon,triangle,2,0,2,0,2,2,26,6,,,,,,,,,,,,,,,,,,,,,,,,,,,,,,,,,,,,,,,,418.0465907999999,418.0465907999999,418.0465907999999,418.0465907999999,418.0465907999999,418.0465907999999,418.0465907999999,418.0465907999999,418.0465907999999,418.0465907999999,a,0.0404168509999181,10,603,2,418.1133428259998,419.614908538,,,,,,,,,,,,,,,,,,,,,,,,,,,,,,,,,,,,,,,,,,,,,,,,,,,,,,,,,,,,,,,,,,,,,,,,,,,,,96409,2022-09-19_10h38.04.309,vts_reward_expectancy_OFFLINE,2022.2.4,59.96041916792314,
0,1,0,0,0,0,1,0,circle,hexagon,2,0,2,0,2,3,27,4,,,,,,,,,,,,,,,,,,,,,,,,,,,,,,,,,,,,,,,,420.1153449390001,420.1153449390001,420.1153449390001,420.1153449390001,420.1153449390001,420.1153449390001,420.1153449390001,420.1153449390001,420.1153449390001,420.1153449390001,a,0.2508733449999454,1,604,2,420.399105751,421.90081712000006,,,,,,,,,,,,,,,,,,,,,,,,,,,,,,,,,,,,,,,,,,,,,,,,,,,,,,,,,,,,,,,,,,,,,,,,,,,,,96409,2022-09-19_10h38.04.309,vts_reward_expectancy_OFFLINE,2022.2.4,59.96041916792314,
0,1,0,0,1,0,0,0,circle,triangle,2,0,2,0,2,4,28,3,,,,,,,,,,,,,,,,,,,,,,,,,,,,,,,,,,,,,,,,422.4013615629999,422.4013615629999,422.4013615629999,422.4013615629999,422.4013615629999,422.4013615629999,422.4013615629999,422.4013615629999,422.4013615629999,422.4013615629999,l,0.14099210299991682,10,614,2,422.56819488299993,424.0697786620001,,,,,,,,,,,,,,,,,,,,,,,,,,,,,,,,,,,,,,,,,,,,,,,,,,,,,,,,,,,,,,,,,,,,,,,,,,,,,96409,2022-09-19_10h38.04.309,vts_reward_expectancy_OFFLINE,2022.2.4,59.96041916792314,
0,1,0,0,0,0,0,1,circle,star,2,0,2,0,2,5,29,5,,,,,,,,,,,,,,,,,,,,,,,,,,,,,,,,,,,,,,,,424.5704667399998,424.5704667399998,424.5704667399998,424.5704667399998,424.5704667399998,424.5704667399998,424.5704667399998,424.5704667399998,424.5704667399998,424.5704667399998,a,0.14821669299999485,10,624,2,424.73711628399974,426.238849736,,,,,,,,,,,,,,,,,,,,,,,,,,,,,,,,,,,,,,,,,,,,,,,,,,,,,,,,,,,,,,,,,,,,,,,,,,,,,96409,2022-09-19_10h38.04.309,vts_reward_expectancy_OFFLINE,2022.2.4,59.96041916792314,
1,0,0,0,0,0,1,0,triangle,hexagon,2,0,2,0,2,6,30,1,,,,,,,,,,,,,,,,,,,,,,,,,,,,,,,,,,,,,,,,426.73967926499995,426.73967926499995,426.73967926499995,426.73967926499995,426.73967926499995,426.73967926499995,426.73967926499995,426.73967926499995,426.73967926499995,426.73967926499995,l,0.03483157899972866,1,625,2,426.806203334,428.3079140990001,,,,,,,,,,,,,,,,,,,,,,,,,,,,,,,,,,,,,,,,,,,,,,,,,,,,,,,,,,,,,,,,,,,,,,,,,,,,,96409,2022-09-19_10h38.04.309,vts_reward_expectancy_OFFLINE,2022.2.4,59.96041916792314,
0,0,0,1,0,0,1,0,star,hexagon,2,0,2,0,2,7,31,11,,,,,,,,,,,,,,,,,,,,,,,,,,,,,,,,,,,,,,,,428.80841548700005,428.80841548700005,428.80841548700005,428.80841548700005,428.80841548700005,428.80841548700005,428.80841548700005,428.80841548700005,428.80841548700005,428.80841548700005,a,0.16604164499995022,1,626,2,428.99167047000014,430.4936997460002,,,,,,,,,,,,,,,,,,,,,,,,,,,,,,,,,,,,,,,,,,,,,,,,,,,,,,,,,,,,,,,,,,,,,,,,,,,,,96409,2022-09-19_10h38.04.309,vts_reward_expectancy_OFFLINE,2022.2.4,59.96041916792314,
0,0,0,1,1,0,0,0,star,triangle,2,0,2,0,2,8,32,9,,,,,,,,,,,,,,,,,,,,,,,,,,,,,,,,,,,,,,,,430.9941720690001,430.9941720690001,430.9941720690001,430.9941720690001,430.9941720690001,430.9941720690001,430.9941720690001,430.9941720690001,430.9941720690001,430.9941720690001,a,0.1320756549998805,1,627,2,431.14436208699976,432.6460978120001,,,,,,,,,,,,,,,,,,,,,,,,,,,,,,,,,,,,,,,,,,,,,,,,,,,,,,,,,,,,,,,,,,,,,,,,,,,,,96409,2022-09-19_10h38.04.309,vts_reward_expectancy_OFFLINE,2022.2.4,59.96041916792314,
0,0,0,1,0,1,0,0,star ,circle,2,0,2,0,2,9,33,10,,,,,,,,,,,,,,,,,,,,,,,,,,,,,,,,,,,,,,,,433.1464798029999,433.1464798029999,433.1464798029999,433.1464798029999,433.1464798029999,433.1464798029999,433.1464798029999,433.1464798029999,433.1464798029999,433.1464798029999,a,0.3558957770001143,1,628,2,433.53032697899994,435.031942588,,,,,,,,,,,,,,,,,,,,,,,,,,,,,,,,,,,,,,,,,,,,,,,,,,,,,,,,,,,,,,,,,,,,,,,,,,,,,96409,2022-09-19_10h38.04.309,vts_reward_expectancy_OFFLINE,2022.2.4,59.96041916792314,
1,0,0,0,0,1,0,0,triangle,circle,2,0,2,0,2,10,34,0,,,,,,,,,,,,,,,,,,,,,,,,,,,,,,,,,,,,,,,,435.53237451100017,435.53237451100017,435.53237451100017,435.53237451100017,435.53237451100017,435.53237451100017,435.53237451100017,435.53237451100017,435.53237451100017,435.53237451100017,a,0.8017915360001098,10,638,2,436.36676366000006,437.86839299300004,,,,,,,,,,,,,,,,,,,,,,,,,,,,,,,,,,,,,,,,,,,,,,,,,,,,,,,,,,,,,,,,,,,,,,,,,,,,,96409,2022-09-19_10h38.04.309,vts_reward_expectancy_OFFLINE,2022.2.4,59.96041916792314,
0,0,1,0,0,1,0,0,hexagon,circle,2,0,2,0,2,11,35,7,,,,,,,,,,,,,,,,,,,,,,,,,,,,,,,,,,,,,,,,438.3690408959999,438.3690408959999,438.3690408959999,438.3690408959999,438.3690408959999,438.3690408959999,438.3690408959999,438.3690408959999,438.3690408959999,438.3690408959999,a,0.5496644370000467,10,648,2,438.9362364199999,440.43792685799986,,,,,,,,,,,,,,,,,,,,,,,,,,,,,,,,,,,,,,,,,,,,,,,,,,,,,,,,,,,,,,,,,,,,,,,,,,,,,96409,2022-09-19_10h38.04.309,vts_reward_expectancy_OFFLINE,2022.2.4,59.96041916792314,
,,,,,,,,,,,,,,,,,,0,0,0,0,0,0,0,0,,,,,,,,,,,,,,,,,,,,,,,,,,,,,,,,,,,,,,,,,,,,,,,,475.8101632549999,,U,181,hexagon,0.0022233419999793114,469.8012076140001,471.3051749819999,471.3051749819999,471.3051749819999,474.30857946499987,474.30857946499987,474.30857946499987,474.30857946499987,0,0,None,0,474.30857946499987,475.8101632549999,476.3106870019999,,,,,,,,,,,,,,,,,,,,,,,,,,,,,,,,,,,,,,,,,,,,,,,,,,,,,,,,,96409,2022-09-19_10h38.04.309,vts_reward_expectancy_OFFLINE,2022.2.4,59.96041916792314,
,,,,,,,,,,,,,,,,,,0,0,0,0,1,0,1,0,,,,,,,,,,,,,,,,,,,,,,,,,,,,,,,,,,,,,,,,,,,,,,,,482.8180238289999,,H,132,triangle,0.009229189000052429,476.809299411,478.3129099969999,478.3129099969999,478.3129099969999,481.3163481119998,481.3163481119998,481.3163481119998,481.3163481119998,0,1,None,0,481.3163481119998,482.8180238289999,,,,,,,,,,,,,,,,,,,,,,,,,,,,,,,,,,,,,,,,,,,,,,,,,,,,,,,,,,96409,2022-09-19_10h38.04.309,vts_reward_expectancy_OFFLINE,2022.2.4,59.96041916792314,
,,,,,,,,,,,,,,,,,,0,0,0,0,2,0,2,0,,,,,,,,,,,,,,,,,,,,,,,,,,,,,,,,,,,,,,,,,,,,,,,,488.32394952599975,,S,174,circle,0.0007580699998470664,483.8005593800001,485.30430813299995,485.30430813299995,485.30430813299995,,,,,2,1,k,0,486.82485272200006,,,1.4941571019999174,,,,,,,,,,,,,,,,,,,,,,,,,,,,,,,,,,,,,,,,,,,,,,,,,,,,,,,,96409,2022-09-19_10h38.04.309,vts_reward_expectancy_OFFLINE,2022.2.4,59.96041916792314,
,,,,,,,,,,,,,,,,,,0,0,0,0,3,0,3,0,,,,,,,,,,,,,,,,,,,,,,,,,,,,,,,,,,,,,,,,,,,,,,,,495.31531433299983,,B,167,star,0.0012112459999116254,489.3061469930001,490.81025130600005,490.81025130600005,490.81025130600005,493.81358268100007,493.81358268100007,493.81358268100007,493.81358268100007,0,0,None,0,493.81358268100007,495.31531433299983,495.8156363840001,,,,,,,,,,,,,,,,,,,,,,,,,,,,,,,,,,,,,,,,,,,,,,,,,,,,,,,,,96409,2022-09-19_10h38.04.309,vts_reward_expectancy_OFFLINE,2022.2.4,59.96041916792314,
,,,,,,,,,,,,,,,,,,0,0,0,0,4,0,4,0,,,,,,,,,,,,,,,,,,,,,,,,,,,,,,,,,,,,,,,,,,,,,,,,501.33838820200003,,D,139,hexagon,0.00866706199985856,496.31477280900003,497.818012595,497.818012595,497.818012595,,,,,1,1,d,0,499.84068061799985,,,1.9884092590000364,,,,,,,,,,,,,,,,,,,,,,,,,,,,,,,,,,,,,,,,,,,,,,,,,,,,,,,,96409,2022-09-19_10h38.04.309,vts_reward_expectancy_OFFLINE,2022.2.4,59.96041916792314,
,,,,,,,,,,,,,,,,,,0,0,0,0,5,0,5,0,,,,,,,,,,,,,,,,,,,,,,,,,,,,,,,,,,,,,,,,,,,,,,,,505.60986931,,W,160,triangle,0.0011724500000127591,502.3178386060001,503.82452450899996,503.82452450899996,503.82452450899996,,,,,1,0,f,0,504.1082773820001,,,0.25289871499990113,,,,,,,,,,,,,,,,,,,,,,,,,,,,,,,,,,,,,,,,,,,,,,,,,,,,,,,,96409,2022-09-19_10h38.04.309,vts_reward_expectancy_OFFLINE,2022.2.4,59.96041916792314,
,,,,,,,,,,,,,,,,,,0,0,0,0,6,0,6,0,,,,,,,,,,,,,,,,,,,,,,,,,,,,,,,,,,,,,,,,,,,,,,,,509.74773223199986,,Y,146,star,0.001426091999746859,506.5909425100001,508.0958591780002,508.0958591780002,508.0958591780002,,,,,1,0,f,0,508.2460197879998,,,0.11851038999975572,,,,,,,,,,,,,,,,,,,,,,,,,,,,,,,,,,,,,,,,,,,,,,,,,,,,,,,,96409,2022-09-19_10h38.04.309,vts_reward_expectancy_OFFLINE,2022.2.4,59.96041916792314,
,,,,,,,,,,,,,,,,,,0,0,0,0,7,0,7,0,,,,,,,,,,,,,,,,,,,,,,,,,,,,,,,,,,,,,,,,,,,,,,,,514.1524537019998,,F,125,circle,0.001300391999848216,510.72964554099985,512.233727954,512.233727954,512.233727954,,,,,0,0,f,0,512.650820097,,,0.3888021719999415,,,,,,,,,,,,,,,,,,,,,,,,,,,,,,,,,,,,,,,,,,,,,,,,,,,,,,,,96409,2022-09-19_10h38.04.309,vts_reward_expectancy_OFFLINE,2022.2.4,59.96041916792314,
,,,,,,,,,,,,,,,,,,0,0,0,0,8,0,8,0,,,,,,,,,,,,,,,,,,,,,,,,,,,,,,,,,,,,,,,,,,,,,,,,518.256995765,,U,181,triangle,0.001529218999621662,515.1309740620002,516.638537473,516.638537473,516.638537473,,,,,1,1,f,0,516.7554741020001,,,0.09596852899994701,,,,,,,,,,,,,,,,,,,,,,,,,,,,,,,,,,,,,,,,,,,,,,,,,,,,,,,,96409,2022-09-19_10h38.04.309,vts_reward_expectancy_OFFLINE,2022.2.4,59.96041916792314,
,,,,,,,,,,,,,,,,,,0,0,0,0,9,0,9,0,,,,,,,,,,,,,,,,,,,,,,,,,,,,,,,,,,,,,,,,,,,,,,,,524.4305804479998,,H,132,circle,0.0016620149999653222,519.235205227,520.7430884819998,520.7430884819998,520.7430884819998,,,,,2,0,j,0,522.9290902330001,,,2.167485466999551,,,,,,,,,,,,,,,,,,,,,,,,,,,,,,,,,,,,,,,,,,,,,,,,,,,,,,,,96409,2022-09-19_10h38.04.309,vts_reward_expectancy_OFFLINE,2022.2.4,59.96041916792314,
,,,,,,,,,,,,,,,,,,1,0,1,0,0,0,0,0,,,,,,,,,,,,,,,,,,,,,,,,,,,,,,,,,,,,,,,,,,,,,,,,551.6273571139998,,B,181,star,0.0017943029997695703,547.7710977569998,549.274569681,549.274569681,549.274569681,,,,,1,0,d,1,550.1265769949998,,,0.8269614000000729,,,,,,,,,,,,,,,,,,,,,,,,,,,,,,,,,,,,,,,,,,,,,,,,,,,,,,,,96409,2022-09-19_10h38.04.309,vts_reward_expectancy_OFFLINE,2022.2.4,59.96041916792314,
,,,,,,,,,,,,,,,,,,1,0,1,0,1,0,1,0,,,,,,,,,,,,,,,,,,,,,,,,,,,,,,,,,,,,,,,,,,,,,,,,556.5827180379999,,S,132,hexagon,0.0014832089996161812,552.6071099879998,554.1136446849998,554.1136446849998,554.1136446849998,,,,,1,0,f,1,555.0807927160001,,,0.9487919830003193,,,,,,,,,,,,,,,,,,,,,,,,,,,,,,,,,,,,,,,,,,,,,,,,,,,,,,,,96409,2022-09-19_10h38.04.309,vts_reward_expectancy_OFFLINE,2022.2.4,59.96041916792314,
,,,,,,,,,,,,,,,,,,1,0,1,0,2,0,2,0,,,,,,,,,,,,,,,,,,,,,,,,,,,,,,,,,,,,,,,,,,,,,,,,561.671521687,,H,160,circle,0.001875517999906151,557.5641658530001,559.0686664259999,559.0686664259999,559.0686664259999,,,,,1,0,d,1,560.1698722489998,,,1.0736890580001273,,,,,,,,,,,,,,,,,,,,,,,,,,,,,,,,,,,,,,,,,,,,,,,,,,,,,,,,96409,2022-09-19_10h38.04.309,vts_reward_expectancy_OFFLINE,2022.2.4,59.96041916792314,
,,,,,,,,,,,,,,,,,,1,0,1,0,3,0,3,0,,,,,,,,,,,,,,,,,,,,,,,,,,,,,,,,,,,,,,,,,,,,,,,,566.827197285,,D,125,triangle,0.0016864170002008905,562.6509698389998,564.1575604779998,564.1575604779998,564.1575604779998,,,,,1,0,d,1,565.3255730650001,,,1.1447390419998555,,,,,,,,,,,,,,,,,,,,,,,,,,,,,,,,,,,,,,,,,,,,,,,,,,,,,,,,96409,2022-09-19_10h38.04.309,vts_reward_expectancy_OFFLINE,2022.2.4,59.96041916792314,
,,,,,,,,,,,,,,,,,,1,0,1,0,4,0,4,0,,,,,,,,,,,,,,,,,,,,,,,,,,,,,,,,,,,,,,,,,,,,,,,,571.6494453980001,,W,174,star,0.0015729019996797433,567.8066006679999,569.3131839959999,569.3131839959999,569.3131839959999,,,,,1,0,f,1,570.1477918620001,,,0.8055243419998988,,,,,,,,,,,,,,,,,,,,,,,,,,,,,,,,,,,,,,,,,,,,,,,,,,,,,,,,96409,2022-09-19_10h38.04.309,vts_reward_expectancy_OFFLINE,2022.2.4,59.96041916792314,
,,,,,,,,,,,,,,,,,,1,0,1,0,5,0,5,0,,,,,,,,,,,,,,,,,,,,,,,,,,,,,,,,,,,,,,,,,,,,,,,,576.437886859,,Y,146,circle,0.001527712000097381,572.62853758,574.1356294919999,574.1356294919999,574.1356294919999,,,,,1,0,f,1,574.9362147889999,,,0.7746250400000463,,,,,,,,,,,,,,,,,,,,,,,,,,,,,,,,,,,,,,,,,,,,,,,,,,,,,,,,96409,2022-09-19_10h38.04.309,vts_reward_expectancy_OFFLINE,2022.2.4,59.96041916792314,
,,,,,,,,,,,,,,,,,,1,0,1,0,6,0,6,0,,,,,,,,,,,,,,,,,,,,,,,,,,,,,,,,,,,,,,,,,,,,,,,,581.1764638480001,,U,139,hexagon,0.0015133060001062404,577.4176786370001,578.9238908260002,578.9238908260002,578.9238908260002,,,,,1,0,f,1,579.6748628500002,,,0.7307638699999188,,,,,,,,,,,,,,,,,,,,,,,,,,,,,,,,,,,,,,,,,,,,,,,,,,,,,,,,96409,2022-09-19_10h38.04.309,vts_reward_expectancy_OFFLINE,2022.2.4,59.96041916792314,
,,,,,,,,,,,,,,,,,,1,0,1,0,7,0,7,0,,,,,,,,,,,,,,,,,,,,,,,,,,,,,,,,,,,,,,,,,,,,,,,,586.1486154830002,,F,167,triangle,0.001845426999807387,582.1544607519997,583.6625942600001,583.6625942600001,583.6625942600001,,,,,1,0,d,1,584.646990121,,,0.9679730519997065,,,,,,,,,,,,,,,,,,,,,,,,,,,,,,,,,,,,,,,,,,,,,,,,,,,,,,,,96409,2022-09-19_10h38.04.309,vts_reward_expectancy_OFFLINE,2022.2.4,59.96041916792314,
,,,,,,,,,,,,,,,,,,1,0,1,0,8,0,8,0,,,,,,,,,,,,,,,,,,,,,,,,,,,,,,,,,,,,,,,,,,,,,,,,590.8705705159998,,B,181,hexagon,0.0012429979997250484,587.1275935299998,588.6348192749999,588.6348192749999,588.6348192749999,,,,,1,0,d,1,589.3688779390002,,,0.7161268889999519,,,,,,,,,,,,,,,,,,,,,,,,,,,,,,,,,,,,,,,,,,,,,,,,,,,,,,,,96409,2022-09-19_10h38.04.309,vts_reward_expectancy_OFFLINE,2022.2.4,59.96041916792314,
,,,,,,,,,,,,,,,,,,1,0,1,0,9,0,9,0,,,,,,,,,,,,,,,,,,,,,,,,,,,,,,,,,,,,,,,,,,,,,,,,595.625696373,,S,132,circle,0.0012144859997533786,591.850523677,593.3565897159999,593.3565897159999,593.3565897159999,,,,,1,0,f,1,594.1241165069998,,,0.7368392489997859,,,,,,,,,,,,,,,,,,,,,,,,,,,,,,,,,,,,,,,,,,,,,,,,,,,,,,,,96409,2022-09-19_10h38.04.309,vts_reward_expectancy_OFFLINE,2022.2.4,59.96041916792314,
,,,,,,,,,,,,,,,,,,,,,,,,,,0,0,0,0,0,0,0,0,,,,,,,,,,,,,,,,,,,,,,,,,,,,,,,,,,,,,,,,623.0893125949999,,Y,132,hexagon,0.0021793470000375237,,,,,,,,,0,0,,2,621.5875083949998,623.0893125949999,623.589901647,,617.0763956439998,618.5844599039999,618.5844599039999,618.5844599039999,621.5875083949998,621.5875083949998,621.5875083949998,621.5875083949998,None,,,,,,,,,,,,,,,,,,,,,,,,,,,,,,,,,,,,,,,,,,,,,,,96409,2022-09-19_10h38.04.309,vts_reward_expectancy_OFFLINE,2022.2.4,59.96041916792314,
,,,,,,,,,,,,,,,,,,,,,,,,,,0,0,0,0,1,0,1,0,,,,,,,,,,,,,,,,,,,,,,,,,,,,,,,,,,,,,,,,627.877983913,,S,174,star,0.009252864000245609,,,,,,,,,1,1,,2,626.376715738,,,,624.0843623809999,625.5921577050001,625.5921577050001,625.5921577050001,,,,,k,0.7664330259999588,,,,,,,,,,,,,,,,,,,,,,,,,,,,,,,,,,,,,,,,,,,,,,96409,2022-09-19_10h38.04.309,vts_reward_expectancy_OFFLINE,2022.2.4,59.96041916792314,
,,,,,,,,,,,,,,,,,,,,,,,,,,0,0,0,0,2,0,2,0,,,,,,,,,,,,,,,,,,,,,,,,,,,,,,,,,,,,,,,,632.599889373,,H,181,triangle,0.0012366900000415626,,,,,,,,,1,0,,2,631.0981408079999,,,,628.8573826859999,630.364236657,630.364236657,630.364236657,,,,,k,0.7060176379995937,,,,,,,,,,,,,,,,,,,,,,,,,,,,,,,,,,,,,,,,,,,,,,96409,2022-09-19_10h38.04.309,vts_reward_expectancy_OFFLINE,2022.2.4,59.96041916792314,
,,,,,,,,,,,,,,,,,,,,,,,,,,0,0,0,0,3,0,3,0,,,,,,,,,,,,,,,,,,,,,,,,,,,,,,,,,,,,,,,,637.271667278,,F,125,circle,0.0017277870001635165,,,,,,,,,1,0,,2,635.7700485110001,,,,633.5785171690002,635.0858805089999,635.0858805089999,635.0858805089999,,,,,j,0.6638379020000684,,,,,,,,,,,,,,,,,,,,,,,,,,,,,,,,,,,,,,,,,,,,,,96409,2022-09-19_10h38.04.309,vts_reward_expectancy_OFFLINE,2022.2.4,59.96041916792314,
,,,,,,,,,,,,,,,,,,,,,,,,,,0,0,0,0,4,0,4,0,,,,,,,,,,,,,,,,,,,,,,,,,,,,,,,,,,,,,,,,642.3941171069998,,U,146,circle,0.0017762999996193685,,,,,,,,,1,0,,2,640.8924271459998,,,,638.2515383120001,639.7577130450002,639.7577130450002,639.7577130450002,,,,,j,1.1124587350000184,,,,,,,,,,,,,,,,,,,,,,,,,,,,,,,,,,,,,,,,,,,,,,96409,2022-09-19_10h38.04.309,vts_reward_expectancy_OFFLINE,2022.2.4,59.96041916792314,
,,,,,,,,,,,,,,,,,,,,,,,,,,0,0,0,0,5,0,5,0,,,,,,,,,,,,,,,,,,,,,,,,,,,,,,,,,,,,,,,,647.4830000029999,,D,167,triangle,0.0014251500001591921,,,,,,,,,1,0,,2,645.9814874309998,,,,643.373268053,644.880064921,644.880064921,644.880064921,,,,,k,1.0782892329998504,,,,,,,,,,,,,,,,,,,,,,,,,,,,,,,,,,,,,,,,,,,,,,96409,2022-09-19_10h38.04.309,vts_reward_expectancy_OFFLINE,2022.2.4,59.96041916792314,
,,,,,,,,,,,,,,,,,,,,,,,,,,0,0,0,0,6,0,6,0,,,,,,,,,,,,,,,,,,,,,,,,,,,,,,,,,,,,,,,,652.52184087,,B,160,hexagon,0.0015851769999244425,,,,,,,,,1,0,,2,651.020201389,,,,648.4628711150001,649.9692346559998,649.9692346559998,649.9692346559998,,,,,k,1.0287289430002602,,,,,,,,,,,,,,,,,,,,,,,,,,,,,,,,,,,,,,,,,,,,,,96409,2022-09-19_10h38.04.309,vts_reward_expectancy_OFFLINE,2022.2.4,59.96041916792314,
,,,,,,,,,,,,,,,,,,,,,,,,,,0,0,0,0,7,0,7,0,,,,,,,,,,,,,,,,,,,,,,,,,,,,,,,,,,,,,,,,657.2937273989999,,W,139,star,0.0016588569997111335,,,,,,,,,1,0,,2,655.7920245150001,,,,653.501316476,655.007848896,655.007848896,655.007848896,,,,,j,0.7577456389999497,,,,,,,,,,,,,,,,,,,,,,,,,,,,,,,,,,,,,,,,,,,,,,96409,2022-09-19_10h38.04.309,vts_reward_expectancy_OFFLINE,2022.2.4,59.96041916792314,
,,,,,,,,,,,,,,,,,,,,,,,,,,0,0,0,0,8,0,8,0,,,,,,,,,,,,,,,,,,,,,,,,,,,,,,,,,,,,,,,,662.232568911,,Y,132,circle,0.0017290040000261797,,,,,,,,,1,0,,2,660.731103239,,,,658.273361845,659.7799221980001,659.7799221980001,659.7799221980001,,,,,j,0.9297969729996112,,,,,,,,,,,,,,,,,,,,,,,,,,,,,,,,,,,,,,,,,,,,,,96409,2022-09-19_10h38.04.309,vts_reward_expectancy_OFFLINE,2022.2.4,59.96041916792314,
,,,,,,,,,,,,,,,,,,,,,,,,,,0,0,0,0,9,0,9,0,,,,,,,,,,,,,,,,,,,,,,,,,,,,,,,,,,,,,,,,667.088049661,,S,174,triangle,0.0018095820000780805,,,,,,,,,1,0,,2,665.5861755660001,,,,663.2111008609997,664.7185435849999,664.7185435849999,664.7185435849999,,,,,k,0.8407068970000182,,,,,,,,,,,,,,,,,,,,,,,,,,,,,,,,,,,,,,,,,,,,,,96409,2022-09-19_10h38.04.309,vts_reward_expectancy_OFFLINE,2022.2.4,59.96041916792314,
,,,,,,,,,,,,,,,,,,,,,,,,,,,,,,,,,,0,0,0,0,0,0,0,0,,,,,,,,,,,,,,,,,,,,,,,,,,,,0,648,,,685.0076075889999,,S,167,hexagon,0.0021612919999824953,,,,,,,,,-1,0,,3,,,685.508351702,,,,,,,,,,,,678.9995065219998,678.9995065219998,678.9995065219998,678.9995065219998,680.5026552779998,680.5026552779998,680.5026552779998,680.5026552779998,680.5026552779998,680.5026552779998,680.5026552779998,680.5026552779998,683.5064092679997,683.5064092679997,683.5064092679997,683.5064092679997,-1,no_choice,NA,None,vtsPrac,683.5064092679997,685.0076075889999,,,,,,,,,,,,,,,,,,,,,,,96409,2022-09-19_10h38.04.309,vts_reward_expectancy_OFFLINE,2022.2.4,59.96041916792314,
,,,,,,,,,,,,,,,,,,,,,,,,,,,,,,,,,,0,0,0,0,1,0,1,0,,,,,,,,,,,,,,,,,,,,,,,,,,,,0,648,,,691.598262919,,Y,125,star,0.009350492000066879,,,,,,,,,1,0,,3,,,,,,,,,,,,,,,686.0049112899999,686.0049112899999,686.0049112899999,686.0049112899999,687.510615209,687.510615209,687.510615209,687.510615209,687.510615209,687.510615209,687.510615209,687.510615209,,,,,switch,letter,lettSwt,f,vtsPrac,690.0979102029999,,2.568614258999787,,,,,,,,,,,,,,,,,,,,,,96409,2022-09-19_10h38.04.309,vts_reward_expectancy_OFFLINE,2022.2.4,59.96041916792314,
,,,,,,,,,,,,,,,,,,,,,,,,,,,,,,,,,,0,0,0,0,2,0,2,0,,,,,,,,,,,,,,,,,,,,,,,,,,,,0,648,,,696.7874341539998,,W,132,circle,0.0013232179999249638,,,,,,,,,1,0,,3,,,,,,,,,,,,,,,692.5807329699999,692.5807329699999,692.5807329699999,692.5807329699999,694.0842650259999,694.0842650259999,694.0842650259999,694.0842650259999,694.0842650259999,694.0842650259999,694.0842650259999,694.0842650259999,,,,,repeat,letter,lettRpt,f,vtsPrac,695.2855809109999,,1.1693301440000141,,,,,,,,,,,,,,,,,,,,,,96409,2022-09-19_10h38.04.309,vts_reward_expectancy_OFFLINE,2022.2.4,59.96041916792314,
,,,,,,,,,,,,,,,,,,,,,,,,,,,,,,,,,,0,0,0,0,3,0,3,0,,,,,,,,,,,,,,,,,,,,,,,,,,,,0,648,,,701.5425874599998,,H,174,star,0.00161269899990657,,,,,,,,,0,0,,3,,,,,,,,,,,,,,,697.7696691429999,697.7696691429999,697.7696691429999,697.7696691429999,699.2735130439999,699.2735130439999,699.2735130439999,699.2735130439999,699.2735130439999,699.2735130439999,699.2735130439999,699.2735130439999,,,,,repeat,letter,NA,f,vtsPrac,700.041447068,,0.7490356260000226,,,,,,,,,,,,,,,,,,,,,,96409,2022-09-19_10h38.04.309,vts_reward_expectancy_OFFLINE,2022.2.4,59.96041916792314,
,,,,,,,,,,,,,,,,,,,,,,,,,,,,,,,,,,0,0,0,0,4,0,4,0,,,,,,,,,,,,,,,,,,,,,,,,,,,,0,648,,,706.5480877699999,,S,167,triangle,0.0014818499998909829,,,,,,,,,1,1,,3,,,,,,,,,,,,,,,702.5225241639998,702.5225241639998,702.5225241639998,702.5225241639998,704.0287000850001,704.0287000850001,704.0287000850001,704.0287000850001,704.0287000850001,704.0287000850001,704.0287000850001,704.0287000850001,,,,,repeat,letter,lettRpt,f,vtsPrac,705.0463803690002,,0.9855195449999883,,,,,,,,,,,,,,,,,,,,,,96409,2022-09-19_10h38.04.309,vts_reward_expectancy_OFFLINE,2022.2.4,59.96041916792314,
,,,,,,,,,,,,,,,,,,,,,,,,,,,,,,,,,,0,0,0,0,5,0,5,0,,,,,,,,,,,,,,,,,,,,,,,,,,,,0,648,,,711.4036899169998,,Y,125,circle,0.0016416439998465648,,,,,,,,,1,0,,3,,,,,,,,,,,,,,,707.5281352240002,707.5281352240002,707.5281352240002,707.5281352240002,709.0342114329999,709.0342114329999,709.0342114329999,709.0342114329999,709.0342114329999,709.0342114329999,709.0342114329999,709.0342114329999,,,,,repeat,letter,lettRpt,f,vtsPrac,709.9017613919998,,0.8436499819999881,,,,,,,,,,,,,,,,,,,,,,96409,2022-09-19_10h38.04.309,vts_reward_expectancy_OFFLINE,2022.2.4,59.96041916792314,
,,,,,,,,,,,,,,,,,,,,,,,,,,,,,,,,,,0,0,0,0,6,0,6,0,,,,,,,,,,,,,,,,,,,,,,,,,,,,0,648,,,716.292245723,,W,132,circle,0.001631100999929913,,,,,,,,,1,0,,3,,,,,,,,,,,,,,,712.3814122229999,712.3814122229999,712.3814122229999,712.3814122229999,713.8894893439999,713.8894893439999,713.8894893439999,713.8894893439999,713.8894893439999,713.8894893439999,713.8894893439999,713.8894893439999,,,,,repeat,letter,lettRpt,f,vtsPrac,714.790481023,,0.868783194000116,,,,,,,,,,,,,,,,,,,,,,96409,2022-09-19_10h38.04.309,vts_reward_expectancy_OFFLINE,2022.2.4,59.96041916792314,
,,,,,,,,,,,,,,,,,,,,,,,,,,,,,,,,,,0,0,0,0,7,0,7,0,,,,,,,,,,,,,,,,,,,,,,,,,,,,0,648,,,721.1141788369998,,H,174,hexagon,0.0016499349999321566,,,,,,,,,0,0,,3,,,,,,,,,,,,,,,717.2724512689999,717.2724512689999,717.2724512689999,717.2724512689999,718.778402918,718.778402918,718.778402918,718.778402918,718.778402918,718.778402918,718.778402918,718.778402918,,,,,repeat,letter,NA,f,vtsPrac,719.6126669379998,,0.8033548560001691,,,,,,,,,,,,,,,,,,,,,,96409,2022-09-19_10h38.04.309,vts_reward_expectancy_OFFLINE,2022.2.4,59.96041916792314,
,,,,,,,,,,,,,,,,,,,,,,,,,,,,,,,,,,0,0,0,0,8,0,8,0,,,,,,,,,,,,,,,,,,,,,,,,,,,,0,648,,,725.7695463849998,,B,167,star,0.0016056180002124165,,,,,,,,,1,1,,3,,,,,,,,,,,,,,,722.0940556379999,722.0940556379999,722.0940556379999,722.0940556379999,723.6002499899998,723.6002499899998,723.6002499899998,723.6002499899998,723.6002499899998,723.6002499899998,723.6002499899998,723.6002499899998,,,,,repeat,letter,lettRpt,d,vtsPrac,724.2680088320001,,0.6374609389999932,,,,,,,,,,,,,,,,,,,,,,96409,2022-09-19_10h38.04.309,vts_reward_expectancy_OFFLINE,2022.2.4,59.96041916792314,
,,,,,,,,,,,,,,,,,,,,,,,,,,,,,,,,,,0,0,0,0,9,0,9,0,,,,,,,,,,,,,,,,,,,,,,,,,,,,0,648,,,731.5757801960001,,H,146,triangle,0.0015937889997985621,,,,,,,,,1,0,,3,,,,,,,,,,,,,,,726.7483398309998,726.7483398309998,726.7483398309998,726.7483398309998,728.2553404560001,728.2553404560001,728.2553404560001,728.2553404560001,728.2553404560001,728.2553404560001,728.2553404560001,728.2553404560001,,,,,repeat,letter,lettRpt,d,vtsPrac,730.0740618379998,,1.7987666079998235,,,,,,,,,,,,,,,,,,,,,,96409,2022-09-19_10h38.04.309,vts_reward_expectancy_OFFLINE,2022.2.4,59.96041916792314,
,,,,,,,,,,,,,,,,,,,,,,,,,,,,,,,,,,0,0,0,0,10,0,10,0,,,,,,,,,,,,,,,,,,,,,,,,,,,,0,648,,,736.3142707079999,,F,181,star,0.0018438800002513744,,,,,,,,,1,0,,3,,,,,,,,,,,,,,,732.5584043709998,732.5584043709998,732.5584043709998,732.5584043709998,734.0618144379998,734.0618144379998,734.0618144379998,734.0618144379998,734.0618144379998,734.0618144379998,734.0618144379998,734.0618144379998,,,,,repeat,letter,lettRpt,d,vtsPrac,734.8126438020001,,0.7276869480001551,,,,,,,,,,,,,,,,,,,,,,96409,2022-09-19_10h38.04.309,vts_reward_expectancy_OFFLINE,2022.2.4,59.96041916792314,
,,,,,,,,,,,,,,,,,,,,,,,,,,,,,,,,,,0,0,0,0,11,0,11,0,,,,,,,,,,,,,,,,,,,,,,,,,,,,0,648,,,741.0528184530001,,S,174,triangle,0.0012483959999372019,,,,,,,,,1,0,,3,,,,,,,,,,,,,,,737.2954193929997,737.2954193929997,737.2954193929997,737.2954193929997,738.8004392659998,738.8004392659998,738.8004392659998,738.8004392659998,738.8004392659998,738.8004392659998,738.8004392659998,738.8004392659998,,,,,repeat,letter,lettRpt,f,vtsPrac,739.5512034699998,,0.7336177490001319,,,,,,,,,,,,,,,,,,,,,,96409,2022-09-19_10h38.04.309,vts_reward_expectancy_OFFLINE,2022.2.4,59.96041916792314,
,,,,,,,,,,,,,,,,,,,,,,,,,,,,,,,,,,0,0,0,0,12,0,12,0,,,,,,,,,,,,,,,,,,,,,,,,,,,,0,648,,,745.624517646,,B,139,triangle,0.0015382319998025196,,,,,,,,,1,0,,3,,,,,,,,,,,,,,,742.0327415599997,742.0327415599997,742.0327415599997,742.0327415599997,743.5388609159997,743.5388609159997,743.5388609159997,743.5388609159997,743.5388609159997,743.5388609159997,743.5388609159997,743.5388609159997,,,,,repeat,letter,lettRpt,d,vtsPrac,744.1228652040002,,0.5630088880002404,,,,,,,,,,,,,,,,,,,,,,96409,2022-09-19_10h38.04.309,vts_reward_expectancy_OFFLINE,2022.2.4,59.96041916792314,
,,,,,,,,,,,,,,,,,,,,,,,,,,,,,,,,,,0,0,0,0,13,0,13,0,,,,,,,,,,,,,,,,,,,,,,,,,,,,0,648,,,750.3957586660001,,U,146,hexagon,0.0015238780001709529,,,,,,,,,1,0,,3,,,,,,,,,,,,,,,746.6040787879999,746.6040787879999,746.6040787879999,746.6040787879999,748.1105330130001,748.1105330130001,748.1105330130001,748.1105330130001,748.1105330130001,748.1105330130001,748.1105330130001,748.1105330130001,,,,,repeat,letter,lettRpt,f,vtsPrac,748.8948457670001,,0.7519293739997011,,,,,,,,,,,,,,,,,,,,,,96409,2022-09-19_10h38.04.309,vts_reward_expectancy_OFFLINE,2022.2.4,59.96041916792314,
,,,,,,,,,,,,,,,,,,,,,,,,,,,,,,,,,,0,0,0,0,14,0,14,0,,,,,,,,,,,,,,,,,,,,,,,,,,,,0,648,,,755.0683067739999,,S,160,hexagon,0.0016233119999924384,,,,,,,,,1,0,,3,,,,,,,,,,,,,,,751.376372551,751.376372551,751.376372551,751.376372551,752.882567674,752.882567674,752.882567674,752.882567674,752.882567674,752.882567674,752.882567674,752.882567674,,,,,repeat,letter,lettRpt,f,vtsPrac,753.5667626349998,,0.6517875340000501,,,,,,,,,,,,,,,,,,,,,,96409,2022-09-19_10h38.04.309,vts_reward_expectancy_OFFLINE,2022.2.4,59.96041916792314,
,,,,,,,,,,,,,,,,,,,,,,,,,,,,,,,,,,0,0,0,0,15,0,15,0,,,,,,,,,,,,,,,,,,,,,,,,,,,,0,648,,,759.7235885849998,,Y,174,triangle,0.001789540000117995,,,,,,,,,1,0,,3,,,,,,,,,,,,,,,756.047468126,756.047468126,756.047468126,756.047468126,757.5545373990001,757.5545373990001,757.5545373990001,757.5545373990001,757.5545373990001,757.5545373990001,757.5545373990001,757.5545373990001,,,,,repeat,letter,lettRpt,f,vtsPrac,758.2216755729999,,0.6434979480000038,,,,,,,,,,,,,,,,,,,,,,96409,2022-09-19_10h38.04.309,vts_reward_expectancy_OFFLINE,2022.2.4,59.96041916792314,
,,,,,,,,,,,,,,,,,,,,,,,,,,,,,,,,,,1,0,1,0,0,0,0,0,,,,,,,,,,,,,,,,,,,,,,,,,,,,0,648,,,799.2670144279998,,W,174,triangle,0.002161817999876803,,,,,,,,,1,0,,4,,,,,,,,,,,,,,,794.9927580000001,794.9927580000001,794.9927580000001,794.9927580000001,796.4973491150001,796.4973491150001,796.4973491150001,796.4973491150001,796.4973491150001,796.4973491150001,796.4973491150001,796.4973491150001,,,,,repeat,letter,lettRpt,f,vtsPrac,797.7653532960001,,1.2359173549998559,,,,,,,,,,,,,,,,,,,,,,96409,2022-09-19_10h38.04.309,vts_reward_expectancy_OFFLINE,2022.2.4,59.96041916792314,
,,,,,,,,,,,,,,,,,,,,,,,,,,,,,,,,,,1,0,1,0,1,0,1,0,,,,,,,,,,,,,,,,,,,,,,,,,,,,0,648,,,804.8231438609998,,F,125,star,0.0016631839998808573,,,,,,,,,1,0,,4,,,,,,,,,,,,,,,800.2462129349999,800.2462129349999,800.2462129349999,800.2462129349999,801.7530583360001,801.7530583360001,801.7530583360001,801.7530583360001,801.7530583360001,801.7530583360001,801.7530583360001,801.7530583360001,,,,,repeat,letter,lettRpt,d,vtsPrac,803.3214252689997,,1.5414978529997825,,,,,,,,,,,,,,,,,,,,,,96409,2022-09-19_10h38.04.309,vts_reward_expectancy_OFFLINE,2022.2.4,59.96041916792314,
,,,,,,,,,,,,,,,,,,,,,,,,,,,,,,,,,,1,0,1,0,2,0,2,0,,,,,,,,,,,,,,,,,,,,,,,,,,,,0,648,,,810.2123721969999,,B,167,triangle,0.0015487880000364385,,,,,,,,,1,0,,4,,,,,,,,,,,,,,,805.8020800950001,805.8020800950001,805.8020800950001,805.8020800950001,807.309224498,807.309224498,807.309224498,807.309224498,807.309224498,807.309224498,807.309224498,807.309224498,,,,,switch,number,numSwt,k,vtsPrac,808.7106680270001,,1.3767120979996434,,,,,,,,,,,,,,,,,,,,,,96409,2022-09-19_10h38.04.309,vts_reward_expectancy_OFFLINE,2022.2.4,59.96041916792314,
,,,,,,,,,,,,,,,,,,,,,,,,,,,,,,,,,,1,0,1,0,3,0,3,0,,,,,,,,,,,,,,,,,,,,,,,,,,,,0,648,,,815.1178952869998,,D,139,hexagon,0.0015619420000803075,,,,,,,,,1,0,,4,,,,,,,,,,,,,,,811.1915625260001,811.1915625260001,811.1915625260001,811.1915625260001,812.698500573,812.698500573,812.698500573,812.698500573,812.698500573,812.698500573,812.698500573,812.698500573,,,,,repeat,number,numRpt,j,vtsPrac,813.6161899169999,,0.8998230229999535,,,,,,,,,,,,,,,,,,,,,,96409,2022-09-19_10h38.04.309,vts_reward_expectancy_OFFLINE,2022.2.4,59.96041916792314,
,,,,,,,,,,,,,,,,,,,,,,,,,,,,,,,,,,1,0,1,0,4,0,4,0,,,,,,,,,,,,,,,,,,,,,,,,,,,,0,648,,,819.9899438569998,,W,174,triangle,0.0015161729997998918,,,,,,,,,1,0,,4,,,,,,,,,,,,,,,816.0990246479998,816.0990246479998,816.0990246479998,816.0990246479998,817.6039907850002,817.6039907850002,817.6039907850002,817.6039907850002,817.6039907850002,817.6039907850002,817.6039907850002,817.6039907850002,,,,,repeat,number,numRpt,k,vtsPrac,818.488307888,,0.8573517350000657,,,,,,,,,,,,,,,,,,,,,,96409,2022-09-19_10h38.04.309,vts_reward_expectancy_OFFLINE,2022.2.4,59.96041916792314,
,,,,,,,,,,,,,,,,,,,,,,,,,,,,,,,,,,1,0,1,0,5,0,5,0,,,,,,,,,,,,,,,,,,,,,,,,,,,,0,648,,,825.145593472,,F,125,circle,0.0014226439998310525,,,,,,,,,1,0,,4,,,,,,,,,,,,,,,820.9691340769998,820.9691340769998,820.9691340769998,820.9691340769998,822.476177191,822.476177191,822.476177191,822.476177191,822.476177191,822.476177191,822.476177191,822.476177191,,,,,repeat,number,numRpt,j,vtsPrac,823.6438944959998,,1.1458712680000644,,,,,,,,,,,,,,,,,,,,,,96409,2022-09-19_10h38.04.309,vts_reward_expectancy_OFFLINE,2022.2.4,59.96041916792314,
,,,,,,,,,,,,,,,,,,,,,,,,,,,,,,,,,,1,0,1,0,6,0,6,0,,,,,,,,,,,,,,,,,,,,,,,,,,,,0,648,,,829.7840505010001,,B,167,triangle,0.0015208419999908074,,,,,,,,,1,0,,4,,,,,,,,,,,,,,,826.1242119679998,826.1242119679998,826.1242119679998,826.1242119679998,827.631715493,827.631715493,827.631715493,827.631715493,827.631715493,827.631715493,827.631715493,827.631715493,,,,,switch,letter,lettSwt,d,vtsPrac,828.282336776,,0.622563461000027,,,,,,,,,,,,,,,,,,,,,,96409,2022-09-19_10h38.04.309,vts_reward_expectancy_OFFLINE,2022.2.4,59.96041916792314,
,,,,,,,,,,,,,,,,,,,,,,,,,,,,,,,,,,1,0,1,0,7,0,7,0,,,,,,,,,,,,,,,,,,,,,,,,,,,,0,648,,,835.0065256979999,,D,139,star,0.0015735470001345675,,,,,,,,,1,0,,4,,,,,,,,,,,,,,,830.7637948419999,830.7637948419999,830.7637948419999,830.7637948419999,832.270020277,832.270020277,832.270020277,832.270020277,832.270020277,832.270020277,832.270020277,832.270020277,,,,,repeat,letter,lettRpt,d,vtsPrac,833.504924951,,1.2165225280000413,,,,,,,,,,,,,,,,,,,,,,96409,2022-09-19_10h38.04.309,vts_reward_expectancy_OFFLINE,2022.2.4,59.96041916792314,
,,,,,,,,,,,,,,,,,,,,,,,,,,,,,,,,,,1,0,1,0,8,0,8,0,,,,,,,,,,,,,,,,,,,,,,,,,,,,0,648,,,840.0620493829999,,S,125,triangle,0.0012243839996699535,,,,,,,,,1,0,,4,,,,,,,,,,,,,,,835.9865155310001,835.9865155310001,835.9865155310001,835.9865155310001,837.492529545,837.492529545,837.492529545,837.492529545,837.492529545,837.492529545,837.492529545,837.492529545,,,,,repeat,letter,lettRpt,f,vtsPrac,838.5604056539999,,1.049910071999875,,,,,,,,,,,,,,,,,,,,,,96409,2022-09-19_10h38.04.309,vts_reward_expectancy_OFFLINE,2022.2.4,59.96041916792314,
,,,,,,,,,,,,,,,,,,,,,,,,,,,,,,,,,,1,0,1,0,9,0,9,0,,,,,,,,,,,,,,,,,,,,,,,,,,,,0,648,,,846.102027099,,Y,146,star,0.0014776220000385365,,,,,,,,,1,0,,4,,,,,,,,,,,,,,,841.041842283,841.041842283,841.041842283,841.041842283,842.5480853840002,842.5480853840002,842.5480853840002,842.5480853840002,842.5480853840002,842.5480853840002,842.5480853840002,842.5480853840002,,,,,repeat,letter,lettRpt,f,vtsPrac,844.6005589190002,,2.026372399999673,,,,,,,,,,,,,,,,,,,,,,96409,2022-09-19_10h38.04.309,vts_reward_expectancy_OFFLINE,2022.2.4,59.96041916792314,
,,,,,,,,,,,,,,,,,,,,,,,,,,,,,,,,,,1,0,1,0,10,0,10,0,,,,,,,,,,,,,,,,,,,,,,,,,,,,0,648,,,852.4257410080002,,F,181,hexagon,0.0015770089999023185,,,,,,,,,1,0,,4,,,,,,,,,,,,,,,847.0811595990001,847.0811595990001,847.0811595990001,847.0811595990001,848.5882256329999,848.5882256329999,848.5882256329999,848.5882256329999,848.5882256329999,848.5882256329999,848.5882256329999,848.5882256329999,,,,,switch,number,numSwt,k,vtsPrac,850.9238722719999,,2.305077144000279,,,,,,,,,,,,,,,,,,,,,,96409,2022-09-19_10h38.04.309,vts_reward_expectancy_OFFLINE,2022.2.4,59.96041916792314,
,,,,,,,,,,,,,,,,,,,,,,,,,,,,,,,,,,1,0,1,0,11,0,11,0,,,,,,,,,,,,,,,,,,,,,,,,,,,,0,648,,,858.9662644160001,,B,132,star,0.0015975320002326043,,,,,,,,,1,0,,4,,,,,,,,,,,,,,,853.4046806549998,853.4046806549998,853.4046806549998,853.4046806549998,854.9118029479998,854.9118029479998,854.9118029479998,854.9118029479998,854.9118029479998,854.9118029479998,854.9118029479998,854.9118029479998,,,,,repeat,number,numRpt,j,vtsPrac,857.464516708,,2.5262261749999197,,,,,,,,,,,,,,,,,,,,,,96409,2022-09-19_10h38.04.309,vts_reward_expectancy_OFFLINE,2022.2.4,59.96041916792314,
,,,,,,,,,,,,,,,,,,,,,,,,,,,,,,,,,,1,0,1,0,12,0,12,0,,,,,,,,,,,,,,,,,,,,,,,,,,,,0,648,,,864.7893015299999,,H,181,triangle,0.0015964970002642076,,,,,,,,,1,0,,4,,,,,,,,,,,,,,,859.9442821119999,859.9442821119999,859.9442821119999,859.9442821119999,861.4521806639998,861.4521806639998,861.4521806639998,861.4521806639998,861.4521806639998,861.4521806639998,861.4521806639998,861.4521806639998,,,,,repeat,number,numRpt,k,vtsPrac,863.2877011449998,,1.8185736469999938,,,,,,,,,,,,,,,,,,,,,,96409,2022-09-19_10h38.04.309,vts_reward_expectancy_OFFLINE,2022.2.4,59.96041916792314,
,,,,,,,,,,,,,,,,,,,,,,,,,,,,,,,,,,1,0,1,0,13,0,13,0,,,,,,,,,,,,,,,,,,,,,,,,,,,,0,648,,,871.0295703670001,,S,160,circle,0.001417520000359218,,,,,,,,,1,0,,4,,,,,,,,,,,,,,,865.7686121439999,865.7686121439999,865.7686121439999,865.7686121439999,867.2754254949998,867.2754254949998,867.2754254949998,867.2754254949998,867.2754254949998,867.2754254949998,867.2754254949998,867.2754254949998,,,,,switch,letter,lettSwt,f,vtsPrac,869.527911419,,2.235171373999947,,,,,,,,,,,,,,,,,,,,,,96409,2022-09-19_10h38.04.309,vts_reward_expectancy_OFFLINE,2022.2.4,59.96041916792314,
,,,,,,,,,,,,,,,,,,,,,,,,,,,,,,,,,,1,0,1,0,14,0,14,0,,,,,,,,,,,,,,,,,,,,,,,,,,,,0,648,,,875.8014915040001,,Y,146,triangle,0.0014819799998804228,,,,,,,,,1,0,,4,,,,,,,,,,,,,,,872.008727782,872.008727782,872.008727782,872.008727782,873.5156795559999,873.5156795559999,873.5156795559999,873.5156795559999,873.5156795559999,873.5156795559999,873.5156795559999,873.5156795559999,,,,,repeat,letter,lettRpt,f,vtsPrac,874.2997998509998,,0.7538728969998374,,,,,,,,,,,,,,,,,,,,,,96409,2022-09-19_10h38.04.309,vts_reward_expectancy_OFFLINE,2022.2.4,59.96041916792314,
,,,,,,,,,,,,,,,,,,,,,,,,,,,,,,,,,,1,0,1,0,15,0,15,0,,,,,,,,,,,,,,,,,,,,,,,,,,,,0,648,,,882.058428089,,W,167,circle,0.0015785909999976866,,,,,,,,,1,0,,4,,,,,,,,,,,,,,,876.7808081549999,876.7808081549999,876.7808081549999,876.7808081549999,878.2875669309999,878.2875669309999,878.2875669309999,878.2875669309999,878.2875669309999,878.2875669309999,878.2875669309999,878.2875669309999,,,,,switch,number,numSwt,k,vtsPrac,880.556751073,,2.2382797589998518,,,,,,,,,,,,,,,,,,,,,,96409,2022-09-19_10h38.04.309,vts_reward_expectancy_OFFLINE,2022.2.4,59.96041916792314,
,,,,,,,,,,,,,,,,,,,,,,,,,,,,,,,,,,,,,,,,,,0,0,0,0,,,,,,,,,,,,,,,,,,,,,,,,0,648,,,908.1539250859998,,F,160,circle,0.0020297109999773966,,,,,,,,,-1,0,,,,,908.6542477279997,,,,,,,,,,,,902.142105353,902.142105353,902.142105353,902.142105353,903.648754994,903.648754994,903.648754994,903.648754994,903.648754994,903.648754994,903.648754994,903.648754994,906.652118368,906.652118368,906.652118368,906.652118368,switch,no_choice,NA,None,noRew,,,,0,906.652118368,908.1539250859998,,,,,,,,,,,,,,,,,,,96409,2022-09-19_10h38.04.309,vts_reward_expectancy_OFFLINE,2022.2.4,59.96041916792314,
,,,,,,,,,,,,,,,,,,,,,,,,,,,,,,,,,,,,,,,,,,1,0,1,0,,,,,,,,,,,,,,,,,,,,,,,,0,648,,,912.8090698580002,,D,132,hexagon,0.008977779000360897,,,,,,,,,1,0,,,,,,,,,,,,,,,,,909.1492576140001,909.1492576140001,909.1492576140001,909.1492576140001,910.6566274929999,910.6566274929999,910.6566274929999,910.6566274929999,910.6566274929999,910.6566274929999,910.6566274929999,910.6566274929999,,,,,switch,letter,lettSwt,d,noRew,,,0.6216730299997835,0,911.3076603500001,,,,,,,,,,,,,,,,,,,,96409,2022-09-19_10h38.04.309,vts_reward_expectancy_OFFLINE,2022.2.4,59.96041916792314,
,,,,,,,,,,,,,,,,,,,,,,,,,,,,,,,,,,,,,,,,,,2,0,2,0,,,,,,,,,,,,,,,,,,,,,,,,0,648,,,917.5642416859998,,U,174,star,0.001502977999734867,,,,,,,,,1,0,,,,,,,,,,,,,,,,,913.787923396,913.787923396,913.787923396,913.787923396,915.2951122930001,915.2951122930001,915.2951122930001,915.2951122930001,915.2951122930001,915.2951122930001,915.2951122930001,915.2951122930001,,,,,repeat,letter,lettRpt,f,noRew,,,0.7509362969999529,0,916.0625788469999,,,,,,,,,,,,,,,,,,,,96409,2022-09-19_10h38.04.309,vts_reward_expectancy_OFFLINE,2022.2.4,59.96041916792314,
,,,,,,,,,,,,,,,,,,,,,,,,,,,,,,,,,,,,,,,,,,3,0,3,0,,,,,,,,,,,,,,,,,,,,,,,,0,648,,,922.7533697709998,,W,181,triangle,0.0011693259998537542,,,,,,,,,1,0,,,,,,,,,,,,,,,,,918.5431810409998,918.5431810409998,918.5431810409998,918.5431810409998,920.050299238,920.050299238,920.050299238,920.050299238,920.050299238,920.050299238,920.050299238,920.050299238,,,,,repeat,letter,lettRpt,f,noRew,,,1.1801045189999968,0,921.2516417529998,,,,,,,,,,,,,,,,,,,,96409,2022-09-19_10h38.04.309,vts_reward_expectancy_OFFLINE,2022.2.4,59.96041916792314,
,,,,,,,,,,,,,,,,,,,,,,,,,,,,,,,,,,,,,,,,,,4,0,4,0,,,,,,,,,,,,,,,,,,,,,,,,0,648,,,928.025727038,,F,160,triangle,0.0016606650001449452,,,,,,,,,1,0,,,,,,,,,,,,,,,,,923.732386979,923.732386979,923.732386979,923.732386979,925.2393401410002,925.2393401410002,925.2393401410002,925.2393401410002,925.2393401410002,925.2393401410002,925.2393401410002,925.2393401410002,,,,,switch,number,numSwt,k,noRew,,,1.2628626609998719,0,926.5241731640001,,,,,,,,,,,,,,,,,,,,96409,2022-09-19_10h38.04.309,vts_reward_expectancy_OFFLINE,2022.2.4,59.96041916792314,
,,,,,,,,,,,,,,,,,,,,,,,,,,,,,,,,,,,,,,,,,,5,0,5,0,,,,,,,,,,,,,,,,,,,,,,,,0,648,,,932.780878459,,D,132,star,0.0015736079999442154,,,,,,,,,1,0,,,,,,,,,,,,,,,,,929.0049165130001,929.0049165130001,929.0049165130001,929.0049165130001,930.511661877,930.511661877,930.511661877,930.511661877,930.511661877,930.511661877,930.511661877,930.511661877,,,,,repeat,number,numRpt,j,noRew,,,0.7506968239999878,0,931.279549307,,,,,,,,,,,,,,,,,,,,96409,2022-09-19_10h38.04.309,vts_reward_expectancy_OFFLINE,2022.2.4,59.96041916792314,
,,,,,,,,,,,,,,,,,,,,,,,,,,,,,,,,,,,,,,,,,,6,0,6,0,,,,,,,,,,,,,,,,,,,,,,,,0,648,,,937.6029400649998,,U,174,triangle,0.001363769999898068,,,,,,,,,1,0,,,,,,,,,,,,,,,,,933.76100952,933.76100952,933.76100952,933.76100952,935.2669141590002,935.2669141590002,935.2669141590002,935.2669141590002,935.2669141590002,935.2669141590002,935.2669141590002,935.2669141590002,,,,,repeat,number,numRpt,k,noRew,,,0.8032085569998344,0,936.1014298480002,,,,,,,,,,,,,,,,,,,,96409,2022-09-19_10h38.04.309,vts_reward_expectancy_OFFLINE,2022.2.4,59.96041916792314,
,,,,,,,,,,,,,,,,,,,,,,,,,,,,,,,,,,,,,,,,,,7,0,7,0,,,,,,,,,,,,,,,,,,,,,,,,0,648,,,942.5084682599997,,W,181,circle,0.0016088200000012876,,,,,,,,,1,0,,,,,,,,,,,,,,,,,938.5828796530002,938.5828796530002,938.5828796530002,938.5828796530002,940.0890156620001,940.0890156620001,940.0890156620001,940.0890156620001,940.0890156620001,940.0890156620001,940.0890156620001,940.0890156620001,,,,,repeat,number,numRpt,k,noRew,,,0.8851288730002125,0,941.006645616,,,,,,,,,,,,,,,,,,,,96409,2022-09-19_10h38.04.309,vts_reward_expectancy_OFFLINE,2022.2.4,59.96041916792314,
,,,,,,,,,,,,,,,,,,,,,,,,,,,,,,,,,,,,,,,,,,8,0,8,0,,,,,,,,,,,,,,,,,,,,,,,,0,648,,,947.3305326940001,,U,181,star,0.001587044000189053,,,,,,,,,1,0,,,,,,,,,,,,,,,,,943.4866990200001,943.4866990200001,943.4866990200001,943.4866990200001,944.9943766859999,944.9943766859999,944.9943766859999,944.9943766859999,944.9943766859999,944.9943766859999,944.9943766859999,944.9943766859999,,,,,repeat,number,numRpt,k,noRew,,,0.8111806060001072,0,945.828722647,,,,,,,,,,,,,,,,,,,,96409,2022-09-19_10h38.04.309,vts_reward_expectancy_OFFLINE,2022.2.4,59.96041916792314,
,,,,,,,,,,,,,,,,,,,,,,,,,,,,,,,,,,,,,,,,,,9,0,9,0,,,,,,,,,,,,,,,,,,,,,,,,0,648,,,952.369242433,,H,139,hexagon,0.0016178930000023684,,,,,,,,,1,0,,,,,,,,,,,,,,,,,948.309690539,948.309690539,948.309690539,948.309690539,949.8165219270002,949.8165219270002,949.8165219270002,949.8165219270002,949.8165219270002,949.8165219270002,949.8165219270002,949.8165219270002,,,,,switch,letter,lettSwt,d,noRew,,,1.0288600829999268,0,950.8674867409998,,,,,,,,,,,,,,,,,,,,96409,2022-09-19_10h38.04.309,vts_reward_expectancy_OFFLINE,2022.2.4,59.96041916792314,
,,,,,,,,,,,,,,,,,,,,,,,,,,,,,,,,,,,,,,,,,,10,0,10,0,,,,,,,,,,,,,,,,,,,,,,,,0,648,,,957.2746447470001,,F,167,hexagon,0.0016091980000965123,,,,,,,,,1,0,,,,,,,,,,,,,,,,,953.347730147,953.347730147,953.347730147,953.347730147,954.8552408090002,954.8552408090002,954.8552408090002,954.8552408090002,954.8552408090002,954.8552408090002,954.8552408090002,954.8552408090002,,,,,repeat,letter,lettRpt,d,noRew,,,0.8953797489998578,0,955.7729454090002,,,,,,,,,,,,,,,,,,,,96409,2022-09-19_10h38.04.309,vts_reward_expectancy_OFFLINE,2022.2.4,59.96041916792314,
,,,,,,,,,,,,,,,,,,,,,,,,,,,,,,,,,,,,,,,,,,11,0,11,0,,,,,,,,,,,,,,,,,,,,,,,,0,648,,,963.0310574550001,,S,146,circle,0.0014859100001558545,,,,,,,,,1,0,,,,,,,,,,,,,,,,,958.254524793,958.254524793,958.254524793,958.254524793,959.7606768570001,959.7606768570001,959.7606768570001,959.7606768570001,959.7606768570001,959.7606768570001,959.7606768570001,959.7606768570001,,,,,repeat,letter,lettRpt,f,noRew,,,1.7495956349998778,0,961.5294987720001,,,,,,,,,,,,,,,,,,,,96409,2022-09-19_10h38.04.309,vts_reward_expectancy_OFFLINE,2022.2.4,59.96041916792314,
,,,,,,,,,,,,,,,,,,,,,,,,,,,,,,,,,,,,,,,,,,12,0,12,0,,,,,,,,,,,,,,,,,,,,,,,,0,648,,,969.571545393,,F,125,triangle,0.001904627000385517,,,,,,,,,0,0,,,,,,,,,,,,,,,,,964.010777187,964.010777187,964.010777187,964.010777187,965.517046484,965.517046484,965.517046484,965.517046484,965.517046484,965.517046484,965.517046484,965.517046484,,,,,switch,number,NA,k,noRew,,,2.5214068620002763,0,968.0704291240002,,,,,,,,,,,,,,,,,,,,96409,2022-09-19_10h38.04.309,vts_reward_expectancy_OFFLINE,2022.2.4,59.96041916792314,
,,,,,,,,,,,,,,,,,,,,,,,,,,,,,,,,,,,,,,,,,,13,0,13,0,,,,,,,,,,,,,,,,,,,,,,,,0,648,,,974.8107840350001,,U,167,star,0.0015518000000156462,,,,,,,,,1,1,,,,,,,,,,,,,,,,,970.549592781,970.549592781,970.549592781,970.549592781,972.0575016599998,972.0575016599998,972.0575016599998,972.0575016599998,972.0575016599998,972.0575016599998,972.0575016599998,972.0575016599998,,,,,repeat,number,numRpt,k,noRew,,,1.2204145209998387,0,973.3094574720001,,,,,,,,,,,,,,,,,,,,96409,2022-09-19_10h38.04.309,vts_reward_expectancy_OFFLINE,2022.2.4,59.96041916792314,
,,,,,,,,,,,,,,,,,,,,,,,,,,,,,,,,,,,,,,,,,,14,0,14,0,,,,,,,,,,,,,,,,,,,,,,,,0,648,,,979.9830895299999,,S,139,hexagon,0.0016218919995480974,,,,,,,,,1,0,,,,,,,,,,,,,,,,,975.789995028,975.789995028,975.789995028,975.789995028,977.2967188159998,977.2967188159998,977.2967188159998,977.2967188159998,977.2967188159998,977.2967188159998,977.2967188159998,977.2967188159998,,,,,repeat,number,numRpt,j,noRew,,,1.1656465999999455,0,978.4812912700002,,,,,,,,,,,,,,,,,,,,96409,2022-09-19_10h38.04.309,vts_reward_expectancy_OFFLINE,2022.2.4,59.96041916792314,
,,,,,,,,,,,,,,,,,,,,,,,,,,,,,,,,,,,,,,,,,,15,0,15,0,,,,,,,,,,,,,,,,,,,,,,,,0,648,,,984.704965916,,W,132,star,0.0017500019998806238,,,,,,,,,1,0,,,,,,,,,,,,,,,,,980.962276384,980.962276384,980.962276384,980.962276384,982.4692023320001,982.4692023320001,982.4692023320001,982.4692023320001,982.4692023320001,982.4692023320001,982.4692023320001,982.4692023320001,,,,,repeat,number,numRpt,j,noRew,,,0.7050135990002673,0,983.203607745,,,,,,,,,,,,,,,,,,,,96409,2022-09-19_10h38.04.309,vts_reward_expectancy_OFFLINE,2022.2.4,59.96041916792314,
,,,,,,,,,,,,,,,,,,,,,,,,,,,,,,,,,,,,,,,,,,16,0,16,0,,,,,,,,,,,,,,,,,,,,,,,,0,648,,,989.660397972,,D,160,star,0.0015242220001709939,,,,,,,,,1,0,,,,,,,,,,,,,,,,,985.6859970459998,985.6859970459998,985.6859970459998,985.6859970459998,987.1909422589999,987.1909422589999,987.1909422589999,987.1909422589999,987.1909422589999,987.1909422589999,987.1909422589999,987.1909422589999,,,,,switch,letter,lettSwt,d,noRew,,,0.9511725810002645,0,988.1588493349998,,,,,,,,,,,,,,,,,,,,96409,2022-09-19_10h38.04.309,vts_reward_expectancy_OFFLINE,2022.2.4,59.96041916792314,
,,,,,,,,,,,,,,,,,,,,,,,,,,,,,,,,,,,,,,,,,,17,0,17,0,,,,,,,,,,,,,,,,,,,,,,,,0,648,,,994.2154672469999,,Y,167,hexagon,0.001331228000253759,,,,,,,,,1,0,,,,,,,,,,,,,,,,,990.640321183,990.640321183,990.640321183,990.640321183,992.146464148,992.146464148,992.146464148,992.146464148,992.146464148,992.146464148,992.146464148,992.146464148,,,,,repeat,letter,lettRpt,f,noRew,,,0.5479017399998156,0,992.7139693930001,,,,,,,,,,,,,,,,,,,,96409,2022-09-19_10h38.04.309,vts_reward_expectancy_OFFLINE,2022.2.4,59.96041916792314,
,,,,,,,,,,,,,,,,,,,,,,,,,,,,,,,,,,,,,,,,,,18,0,18,0,,,,,,,,,,,,,,,,,,,,,,,,0,648,,,1000.4892459700002,,B,146,hexagon,0.0014957439998397604,,,,,,,,,1,0,,,,,,,,,,,,,,,,,995.194191371,995.194191371,995.194191371,995.194191371,996.701632687,996.701632687,996.701632687,996.701632687,996.701632687,996.701632687,996.701632687,996.701632687,,,,,switch,number,numSwt,j,noRew,,,2.2651921530000436,0,998.9877891469998,,,,,,,,,,,,,,,,,,,,96409,2022-09-19_10h38.04.309,vts_reward_expectancy_OFFLINE,2022.2.4,59.96041916792314,
,,,,,,,,,,,,,,,,,,,,,,,,,,,,,,,,,,,,,,,,,,19,0,19,0,,,,,,,,,,,,,,,,,,,,,,,,0,648,,,1005.661506569,,S,132,circle,0.001530047999949602,,,,,,,,,1,0,,,,,,,,,,,,,,,,,1001.4676026539998,1001.4676026539998,1001.4676026539998,1001.4676026539998,1002.9752772169998,1002.9752772169998,1002.9752772169998,1002.9752772169998,1002.9752772169998,1002.9752772169998,1002.9752772169998,1002.9752772169998,,,,,repeat,number,numRpt,j,noRew,,,1.1583228399995278,0,1004.1598915040001,,,,,,,,,,,,,,,,,,,,96409,2022-09-19_10h38.04.309,vts_reward_expectancy_OFFLINE,2022.2.4,59.96041916792314,
,,,,,,,,,,,,,,,,,,,,,,,,,,,,,,,,,,,,,,,,,,20,0,20,0,,,,,,,,,,,,,,,,,,,,,,,,0,648,,,1010.8170997929999,,Y,139,triangle,0.0013896129999011464,,,,,,,,,1,0,,,,,,,,,,,,,,,,,1006.6403992499997,1006.6403992499997,1006.6403992499997,1006.6403992499997,1008.1473646910001,1008.1473646910001,1008.1473646910001,1008.1473646910001,1008.1473646910001,1008.1473646910001,1008.1473646910001,1008.1473646910001,,,,,switch,letter,lettSwt,f,noRew,,,1.1391508769997927,0,1009.3155870100002,,,,,,,,,,,,,,,,,,,,96409,2022-09-19_10h38.04.309,vts_reward_expectancy_OFFLINE,2022.2.4,59.96041916792314,
,,,,,,,,,,,,,,,,,,,,,,,,,,,,,,,,,,,,,,,,,,21,0,21,0,,,,,,,,,,,,,,,,,,,,,,,,0,648,,,1016.0227810559998,,F,174,star,0.001629482999760512,,,,,,,,,1,0,,,,,,,,,,,,,,,,,1011.7958301319998,1011.7958301319998,1011.7958301319998,1011.7958301319998,1013.3031972669999,1013.3031972669999,1013.3031972669999,1013.3031972669999,1013.3031972669999,1013.3031972669999,1013.3031972669999,1013.3031972669999,,,,,repeat,letter,lettRpt,d,noRew,,,1.1903313379998508,0,1014.521254039,,,,,,,,,,,,,,,,,,,,96409,2022-09-19_10h38.04.309,vts_reward_expectancy_OFFLINE,2022.2.4,59.96041916792314,
,,,,,,,,,,,,,,,,,,,,,,,,,,,,,,,,,,,,,,,,,,22,0,22,0,,,,,,,,,,,,,,,,,,,,,,,,0,648,,,1020.8948025359998,,B,181,circle,0.0017547350003042084,,,,,,,,,1,0,,,,,,,,,,,,,,,,,1017.0021053399998,1017.0021053399998,1017.0021053399998,1017.0021053399998,1018.5087918309998,1018.5087918309998,1018.5087918309998,1018.5087918309998,1018.5087918309998,1018.5087918309998,1018.5087918309998,1018.5087918309998,,,,,repeat,letter,lettRpt,d,noRew,,,0.8576354430001629,0,1019.393051367,,,,,,,,,,,,,,,,,,,,96409,2022-09-19_10h38.04.309,vts_reward_expectancy_OFFLINE,2022.2.4,59.96041916792314,
,,,,,,,,,,,,,,,,,,,,,,,,,,,,,,,,,,,,,,,,,,23,0,23,0,,,,,,,,,,,,,,,,,,,,,,,,0,648,,,1025.4999151529998,,D,146,star,0.0016855640001267602,,,,,,,,,1,0,,,,,,,,,,,,,,,,,1021.8748974869998,1021.8748974869998,1021.8748974869998,1021.8748974869998,1023.3807938490002,1023.3807938490002,1023.3807938490002,1023.3807938490002,1023.3807938490002,1023.3807938490002,1023.3807938490002,1023.3807938490002,,,,,repeat,letter,lettRpt,d,noRew,,,0.5938173929998811,0,1023.9983022879999,,,,,,,,,,,,,,,,,,,,96409,2022-09-19_10h38.04.309,vts_reward_expectancy_OFFLINE,2022.2.4,59.96041916792314,
