"","participant","acc","E1","points_trial","points_cumul","alt","task","condition","rewCond","curr_shape","curr_topStim","curr_bottStim","blockNum","LShape_ID","RShape_ID","trainBlock","training.thisN","training_resp.keys","training_resp.rt","target_resp.rt","target_resp.keys","trials_norew.thisRepN","trials_rew.thisRepN","platform","OS","browser","xResolution","yResolution","rewExpect"
"1",12531,NA,NA,10,10,"","","training","","","",NA,NA,"hexagon","triangle",0,0,"l",2.50951042100041,NA,"",NA,NA,"inlab","MacIntel",NA,NA,NA,NA
"2",12531,NA,NA,10,20,"","","training","","","",NA,NA,"hexagon","star",0,1,"a",1.02543774300011,NA,"",NA,NA,"inlab","MacIntel",NA,NA,NA,NA
"3",12531,NA,NA,1,21,"","","training","","","",NA,NA,"triangle","hexagon",0,2,"a",1.0283515760002,NA,"",NA,NA,"inlab","MacIntel",NA,NA,NA,NA
"4",12531,NA,NA,10,31,"","","training","","","",NA,NA,"circle","hexagon",0,3,"l",0.639163790000111,NA,"",NA,NA,"inlab","MacIntel",NA,NA,NA,NA
"5",12531,NA,NA,10,41,"","","training","","","",NA,NA,"hexagon","circle",0,4,"a",0.851225802000044,NA,"",NA,NA,"inlab","MacIntel",NA,NA,NA,NA
"6",12531,NA,NA,1,42,"","","training","","","",NA,NA,"circle","star",0,5,"a",0.93290961799994,NA,"",NA,NA,"inlab","MacIntel",NA,NA,NA,NA
"7",12531,NA,NA,10,52,"","","training","","","",NA,NA,"triangle","circle",0,6,"a",0.716008730999874,NA,"",NA,NA,"inlab","MacIntel",NA,NA,NA,NA
"8",12531,NA,NA,1,53,"","","training","","","",NA,NA,"star","triangle",0,7,"l",0.609477709999737,NA,"",NA,NA,"inlab","MacIntel",NA,NA,NA,NA
"9",12531,NA,NA,1,54,"","","training","","","",NA,NA,"triangle","star",0,8,"l",0.701505716000156,NA,"",NA,NA,"inlab","MacIntel",NA,NA,NA,NA
"10",12531,NA,NA,10,64,"","","training","","","",NA,NA,"star","hexagon",0,9,"a",0.813428725999984,NA,"",NA,NA,"inlab","MacIntel",NA,NA,NA,NA
"11",12531,NA,NA,1,65,"","","training","","","",NA,NA,"circle","triangle",0,10,"l",0.682154755000283,NA,"",NA,NA,"inlab","MacIntel",NA,NA,NA,NA
"12",12531,NA,NA,1,66,"","","training","","","",NA,NA,"star","circle",0,11,"l",0.529417005000141,NA,"",NA,NA,"inlab","MacIntel",NA,NA,NA,NA
"13",12531,NA,NA,10,76,"","","training","","","",NA,NA,"star","triangle",0,12,"a",0.713220438000008,NA,"",NA,NA,"inlab","MacIntel",NA,NA,NA,NA
"14",12531,NA,NA,1,77,"","","training","","","",NA,NA,"hexagon","star",0,13,"a",1.08092254500025,NA,"",NA,NA,"inlab","MacIntel",NA,NA,NA,NA
"15",12531,NA,NA,10,87,"","","training","","","",NA,NA,"hexagon","circle",0,14,"l",0.618305282000165,NA,"",NA,NA,"inlab","MacIntel",NA,NA,NA,NA
"16",12531,NA,NA,1,88,"","","training","","","",NA,NA,"triangle","circle",0,15,"l",1.14150920600014,NA,"",NA,NA,"inlab","MacIntel",NA,NA,NA,NA
"17",12531,NA,NA,10,98,"","","training","","","",NA,NA,"circle","star",0,16,"a",0.56967879900003,NA,"",NA,NA,"inlab","MacIntel",NA,NA,NA,NA
"18",12531,NA,NA,10,108,"","","training","","","",NA,NA,"triangle","star",0,17,"l",0.832014977000199,NA,"",NA,NA,"inlab","MacIntel",NA,NA,NA,NA
"19",12531,NA,NA,10,118,"","","training","","","",NA,NA,"star","circle",0,18,"a",0.553773106000335,NA,"",NA,NA,"inlab","MacIntel",NA,NA,NA,NA
"20",12531,NA,NA,1,119,"","","training","","","",NA,NA,"triangle","hexagon",0,19,"a",0.985323977999997,NA,"",NA,NA,"inlab","MacIntel",NA,NA,NA,NA
"21",12531,NA,NA,10,129,"","","training","","","",NA,NA,"circle","triangle",0,20,"a",0.571952736000185,NA,"",NA,NA,"inlab","MacIntel",NA,NA,NA,NA
"22",12531,NA,NA,1,130,"","","training","","","",NA,NA,"star","hexagon",0,21,"a",0.657922433000294,NA,"",NA,NA,"inlab","MacIntel",NA,NA,NA,NA
"23",12531,NA,NA,1,131,"","","training","","","",NA,NA,"hexagon","triangle",0,22,"l",0.507880605000082,NA,"",NA,NA,"inlab","MacIntel",NA,NA,NA,NA
"24",12531,NA,NA,10,141,"","","training","","","",NA,NA,"circle","hexagon",0,23,"a",0.658708931000092,NA,"",NA,NA,"inlab","MacIntel",NA,NA,NA,NA
"25",12531,NA,NA,10,151,"","","training","","","",NA,NA,"triangle","circle",0,24,"l",0.76554416099998,NA,"",NA,NA,"inlab","MacIntel",NA,NA,NA,NA
"26",12531,NA,NA,1,152,"","","training","","","",NA,NA,"star","triangle",0,25,"a",0.962802289000138,NA,"",NA,NA,"inlab","MacIntel",NA,NA,NA,NA
"27",12531,NA,NA,10,162,"","","training","","","",NA,NA,"triangle","hexagon",0,26,"l",1.15245195900025,NA,"",NA,NA,"inlab","MacIntel",NA,NA,NA,NA
"28",12531,NA,NA,1,163,"","","training","","","",NA,NA,"star","hexagon",0,27,"a",0.885127631000159,NA,"",NA,NA,"inlab","MacIntel",NA,NA,NA,NA
"29",12531,NA,NA,10,173,"","","training","","","",NA,NA,"hexagon","star",0,28,"l",0.75051948600003,NA,"",NA,NA,"inlab","MacIntel",NA,NA,NA,NA
"30",12531,NA,NA,1,174,"","","training","","","",NA,NA,"triangle","star",0,29,"l",0.827337524000086,NA,"",NA,NA,"inlab","MacIntel",NA,NA,NA,NA
"31",12531,NA,NA,1,175,"","","training","","","",NA,NA,"hexagon","circle",0,30,"l",0.718569958999979,NA,"",NA,NA,"inlab","MacIntel",NA,NA,NA,NA
"32",12531,NA,NA,1,176,"","","training","","","",NA,NA,"circle","triangle",0,31,"a",1.02858741400041,NA,"",NA,NA,"inlab","MacIntel",NA,NA,NA,NA
"33",12531,NA,NA,10,186,"","","training","","","",NA,NA,"hexagon","triangle",0,32,"a",1.04030246000002,NA,"",NA,NA,"inlab","MacIntel",NA,NA,NA,NA
"34",12531,NA,NA,10,196,"","","training","","","",NA,NA,"circle","star",0,33,"l",0.624794543999997,NA,"",NA,NA,"inlab","MacIntel",NA,NA,NA,NA
"35",12531,NA,NA,10,206,"","","training","","","",NA,NA,"circle","hexagon",0,34,"l",1.86078467600009,NA,"",NA,NA,"inlab","MacIntel",NA,NA,NA,NA
"36",12531,NA,NA,1,207,"","","training","","","",NA,NA,"star","circle",0,35,"l",1.19711978700025,NA,"",NA,NA,"inlab","MacIntel",NA,NA,NA,NA
"37",12531,NA,NA,10,217,"","","training","","","",NA,NA,"hexagon","triangle",1,0,"a",1.15748558599989,NA,"",NA,NA,"inlab","MacIntel",NA,NA,NA,NA
"38",12531,NA,NA,10,227,"","","training","","","",NA,NA,"triangle","circle",1,1,"l",0.569134556000336,NA,"",NA,NA,"inlab","MacIntel",NA,NA,NA,NA
"39",12531,NA,NA,1,228,"","","training","","","",NA,NA,"circle","star",1,2,"a",0.462608844999977,NA,"",NA,NA,"inlab","MacIntel",NA,NA,NA,NA
"40",12531,NA,NA,1,229,"","","training","","","",NA,NA,"triangle","hexagon",1,3,"a",0.584923549999985,NA,"",NA,NA,"inlab","MacIntel",NA,NA,NA,NA
"41",12531,NA,NA,1,230,"","","training","","","",NA,NA,"circle","triangle",1,4,"a",0.509937735000221,NA,"",NA,NA,"inlab","MacIntel",NA,NA,NA,NA
"42",12531,NA,NA,1,231,"","","training","","","",NA,NA,"star","triangle",1,5,"a",0.812634326000079,NA,"",NA,NA,"inlab","MacIntel",NA,NA,NA,NA
"43",12531,NA,NA,1,232,"","","training","","","",NA,NA,"circle","hexagon",1,6,"a",0.601267289000134,NA,"",NA,NA,"inlab","MacIntel",NA,NA,NA,NA
"44",12531,NA,NA,1,233,"","","training","","","",NA,NA,"star","circle",1,7,"l",0.501717823000035,NA,"",NA,NA,"inlab","MacIntel",NA,NA,NA,NA
"45",12531,NA,NA,1,234,"","","training","","","",NA,NA,"triangle","star",1,8,"l",0.827856971000074,NA,"",NA,NA,"inlab","MacIntel",NA,NA,NA,NA
"46",12531,NA,NA,10,244,"","","training","","","",NA,NA,"star","hexagon",1,9,"a",0.511543655000423,NA,"",NA,NA,"inlab","MacIntel",NA,NA,NA,NA
"47",12531,NA,NA,10,254,"","","training","","","",NA,NA,"hexagon","star",1,10,"a",0.46352052300017,NA,"",NA,NA,"inlab","MacIntel",NA,NA,NA,NA
"48",12531,NA,NA,1,255,"","","training","","","",NA,NA,"hexagon","circle",1,11,"l",0.536663020000105,NA,"",NA,NA,"inlab","MacIntel",NA,NA,NA,NA
"49",12531,NA,NA,10,265,"","","training","","","",NA,NA,"triangle","circle",1,12,"a",0.591559725000025,NA,"",NA,NA,"inlab","MacIntel",NA,NA,NA,NA
"50",12531,NA,NA,1,266,"","","training","","","",NA,NA,"triangle","star",1,13,"l",0.517368067000007,NA,"",NA,NA,"inlab","MacIntel",NA,NA,NA,NA
"51",12531,NA,NA,10,276,"","","training","","","",NA,NA,"triangle","hexagon",1,14,"a",0.485053814000366,NA,"",NA,NA,"inlab","MacIntel",NA,NA,NA,NA
"52",12531,NA,NA,1,277,"","","training","","","",NA,NA,"circle","star",1,15,"a",0.509234705000381,NA,"",NA,NA,"inlab","MacIntel",NA,NA,NA,NA
"53",12531,NA,NA,1,278,"","","training","","","",NA,NA,"hexagon","triangle",1,16,"l",0.507980807999957,NA,"",NA,NA,"inlab","MacIntel",NA,NA,NA,NA
"54",12531,NA,NA,10,288,"","","training","","","",NA,NA,"circle","hexagon",1,17,"a",0.451830050999888,NA,"",NA,NA,"inlab","MacIntel",NA,NA,NA,NA
"55",12531,NA,NA,10,298,"","","training","","","",NA,NA,"hexagon","star",1,18,"a",0.575114519000181,NA,"",NA,NA,"inlab","MacIntel",NA,NA,NA,NA
"56",12531,NA,NA,10,308,"","","training","","","",NA,NA,"star","triangle",1,19,"a",0.491504851000172,NA,"",NA,NA,"inlab","MacIntel",NA,NA,NA,NA
"57",12531,NA,NA,1,309,"","","training","","","",NA,NA,"hexagon","circle",1,20,"l",0.476377219999904,NA,"",NA,NA,"inlab","MacIntel",NA,NA,NA,NA
"58",12531,NA,NA,10,319,"","","training","","","",NA,NA,"star","hexagon",1,21,"a",0.301254296000479,NA,"",NA,NA,"inlab","MacIntel",NA,NA,NA,NA
"59",12531,NA,NA,10,329,"","","training","","","",NA,NA,"circle","triangle",1,22,"a",0.524832349999997,NA,"",NA,NA,"inlab","MacIntel",NA,NA,NA,NA
"60",12531,NA,NA,1,330,"","","training","","","",NA,NA,"star","circle",1,23,"l",0.284698526999819,NA,"",NA,NA,"inlab","MacIntel",NA,NA,NA,NA
"61",12531,NA,NA,1,331,"","","training","","","",NA,NA,"hexagon","circle",1,24,"a",0.309168216000216,NA,"",NA,NA,"inlab","MacIntel",NA,NA,NA,NA
"62",12531,NA,NA,1,332,"","","training","","","",NA,NA,"hexagon","triangle",1,25,"l",0.373798044000068,NA,"",NA,NA,"inlab","MacIntel",NA,NA,NA,NA
"63",12531,NA,NA,1,333,"","","training","","","",NA,NA,"star","circle",1,26,"a",0.324062007000066,NA,"",NA,NA,"inlab","MacIntel",NA,NA,NA,NA
"64",12531,NA,NA,10,343,"","","training","","","",NA,NA,"triangle","hexagon",1,27,"l",0.251223417000347,NA,"",NA,NA,"inlab","MacIntel",NA,NA,NA,NA
"65",12531,NA,NA,10,353,"","","training","","","",NA,NA,"star","hexagon",1,28,"a",0.357420544000433,NA,"",NA,NA,"inlab","MacIntel",NA,NA,NA,NA
"66",12531,NA,NA,10,363,"","","training","","","",NA,NA,"circle","triangle",1,29,"a",0.362089550000292,NA,"",NA,NA,"inlab","MacIntel",NA,NA,NA,NA
"67",12531,NA,NA,1,364,"","","training","","","",NA,NA,"star","triangle",1,30,"l",0.376116854999964,NA,"",NA,NA,"inlab","MacIntel",NA,NA,NA,NA
"68",12531,NA,NA,10,374,"","","training","","","",NA,NA,"triangle","star",1,31,"a",0.350667793000412,NA,"",NA,NA,"inlab","MacIntel",NA,NA,NA,NA
"69",12531,NA,NA,1,375,"","","training","","","",NA,NA,"triangle","circle",1,32,"l",0.349299133999921,NA,"",NA,NA,"inlab","MacIntel",NA,NA,NA,NA
"70",12531,NA,NA,1,376,"","","training","","","",NA,NA,"circle","star",1,33,"a",0.378958285000408,NA,"",NA,NA,"inlab","MacIntel",NA,NA,NA,NA
"71",12531,NA,NA,10,386,"","","training","","","",NA,NA,"circle","hexagon",1,34,"l",0.448954233000222,NA,"",NA,NA,"inlab","MacIntel",NA,NA,NA,NA
"72",12531,NA,NA,1,387,"","","training","","","",NA,NA,"hexagon","star",1,35,"l",0.595362458000182,NA,"",NA,NA,"inlab","MacIntel",NA,NA,NA,NA
"73",12531,NA,NA,1,388,"","","training","","","",NA,NA,"circle","triangle",2,0,"a",1.2524938370002,NA,"",NA,NA,"inlab","MacIntel",NA,NA,NA,NA
"74",12531,NA,NA,10,398,"","","training","","","",NA,NA,"circle","hexagon",2,1,"l",0.551716112000122,NA,"",NA,NA,"inlab","MacIntel",NA,NA,NA,NA
"75",12531,NA,NA,10,408,"","","training","","","",NA,NA,"hexagon","circle",2,2,"a",0.541112987000361,NA,"",NA,NA,"inlab","MacIntel",NA,NA,NA,NA
"76",12531,NA,NA,10,418,"","","training","","","",NA,NA,"triangle","hexagon",2,3,"l",2.43614953500037,NA,"",NA,NA,"inlab","MacIntel",NA,NA,NA,NA
"77",12531,NA,NA,10,428,"","","training","","","",NA,NA,"hexagon","triangle",2,4,"a",0.843276456999774,NA,"",NA,NA,"inlab","MacIntel",NA,NA,NA,NA
"78",12531,NA,NA,10,438,"","","training","","","",NA,NA,"hexagon","star",2,5,"l",0.597964435000449,NA,"",NA,NA,"inlab","MacIntel",NA,NA,NA,NA
"79",12531,NA,NA,10,448,"","","training","","","",NA,NA,"triangle","circle",2,6,"l",0.394183683999927,NA,"",NA,NA,"inlab","MacIntel",NA,NA,NA,NA
"80",12531,NA,NA,10,458,"","","training","","","",NA,NA,"circle","star",2,7,"l",0.351649543999883,NA,"",NA,NA,"inlab","MacIntel",NA,NA,NA,NA
"81",12531,NA,NA,1,459,"","","training","","","",NA,NA,"star","circle",2,8,"l",0.325164013000176,NA,"",NA,NA,"inlab","MacIntel",NA,NA,NA,NA
"82",12531,NA,NA,10,469,"","","training","","","",NA,NA,"star","hexagon",2,9,"l",0.348810197000148,NA,"",NA,NA,"inlab","MacIntel",NA,NA,NA,NA
"83",12531,NA,NA,1,470,"","","training","","","",NA,NA,"triangle","star",2,10,"l",0.339220081999883,NA,"",NA,NA,"inlab","MacIntel",NA,NA,NA,NA
"84",12531,NA,NA,1,471,"","","training","","","",NA,NA,"star","triangle",2,11,"l",0.336904105000031,NA,"",NA,NA,"inlab","MacIntel",NA,NA,NA,NA
"85",12531,NA,NA,1,472,"","","training","","","",NA,NA,"circle","triangle",2,12,"a",0.295361603999936,NA,"",NA,NA,"inlab","MacIntel",NA,NA,NA,NA
"86",12531,NA,NA,1,473,"","","training","","","",NA,NA,"hexagon","star",2,13,"l",0.529273903000103,NA,"",NA,NA,"inlab","MacIntel",NA,NA,NA,NA
"87",12531,NA,NA,1,474,"","","training","","","",NA,NA,"circle","star",2,14,"a",0.536473651000051,NA,"",NA,NA,"inlab","MacIntel",NA,NA,NA,NA
"88",12531,NA,NA,10,484,"","","training","","","",NA,NA,"hexagon","circle",2,15,"a",0.117677023999931,NA,"",NA,NA,"inlab","MacIntel",NA,NA,NA,NA
"89",12531,NA,NA,10,494,"","","training","","","",NA,NA,"star","triangle",2,16,"a",0.253565443999832,NA,"",NA,NA,"inlab","MacIntel",NA,NA,NA,NA
"90",12531,NA,NA,10,504,"","","training","","","",NA,NA,"star","circle",2,17,"a",0.0409895060001872,NA,"",NA,NA,"inlab","MacIntel",NA,NA,NA,NA
"91",12531,NA,NA,10,514,"","","training","","","",NA,NA,"star","hexagon",2,18,"l",0.0114894230000573,NA,"",NA,NA,"inlab","MacIntel",NA,NA,NA,NA
"92",12531,NA,NA,10,524,"","","training","","","",NA,NA,"hexagon","triangle",2,19,"a",0.0334799370002656,NA,"",NA,NA,"inlab","MacIntel",NA,NA,NA,NA
"93",12531,NA,NA,1,525,"","","training","","","",NA,NA,"circle","hexagon",2,20,"a",0.148941981000007,NA,"",NA,NA,"inlab","MacIntel",NA,NA,NA,NA
"94",12531,NA,NA,10,535,"","","training","","","",NA,NA,"triangle","circle",2,21,"a",0.226443672000187,NA,"",NA,NA,"inlab","MacIntel",NA,NA,NA,NA
"95",12531,NA,NA,10,545,"","","training","","","",NA,NA,"triangle","star",2,22,"l",0.0149571280003329,NA,"",NA,NA,"inlab","MacIntel",NA,NA,NA,NA
"96",12531,NA,NA,1,546,"","","training","","","",NA,NA,"triangle","hexagon",2,23,"a",0.507489109000289,NA,"",NA,NA,"inlab","MacIntel",NA,NA,NA,NA
"97",12531,NA,NA,1,547,"","","training","","","",NA,NA,"hexagon","star",2,24,"l",0.49944193500005,NA,"",NA,NA,"inlab","MacIntel",NA,NA,NA,NA
"98",12531,NA,NA,10,557,"","","training","","","",NA,NA,"star","hexagon",2,25,"l",0.155139500000132,NA,"",NA,NA,"inlab","MacIntel",NA,NA,NA,NA
"99",12531,NA,NA,10,567,"","","training","","","",NA,NA,"triangle","circle",2,26,"l",0.184572447999926,NA,"",NA,NA,"inlab","MacIntel",NA,NA,NA,NA
"100",12531,NA,NA,1,568,"","","training","","","",NA,NA,"circle","triangle",2,27,"a",0.237284910000199,NA,"",NA,NA,"inlab","MacIntel",NA,NA,NA,NA
"101",12531,NA,NA,10,578,"","","training","","","",NA,NA,"circle","hexagon",2,28,"l",0.144158701999913,NA,"",NA,NA,"inlab","MacIntel",NA,NA,NA,NA
"102",12531,NA,NA,1,579,"","","training","","","",NA,NA,"star","triangle",2,29,"l",1.07976792399995,NA,"",NA,NA,"inlab","MacIntel",NA,NA,NA,NA
"103",12531,NA,NA,10,589,"","","training","","","",NA,NA,"triangle","star",2,30,"l",0.649207920999743,NA,"",NA,NA,"inlab","MacIntel",NA,NA,NA,NA
"104",12531,NA,NA,10,599,"","","training","","","",NA,NA,"hexagon","triangle",2,31,"a",0.507486497000173,NA,"",NA,NA,"inlab","MacIntel",NA,NA,NA,NA
"105",12531,NA,NA,1,600,"","","training","","","",NA,NA,"star","circle",2,32,"l",0.40988910499982,NA,"",NA,NA,"inlab","MacIntel",NA,NA,NA,NA
"106",12531,NA,NA,1,601,"","","training","","","",NA,NA,"triangle","hexagon",2,33,"a",0.678585806000228,NA,"",NA,NA,"inlab","MacIntel",NA,NA,NA,NA
"107",12531,NA,NA,1,602,"","","training","","","",NA,NA,"circle","star",2,34,"l",0.343785802000184,NA,"",NA,NA,"inlab","MacIntel",NA,NA,NA,NA
"108",12531,NA,NA,10,612,"","","training","","","",NA,NA,"hexagon","circle",2,35,"a",0.318104425000001,NA,"",NA,NA,"inlab","MacIntel",NA,NA,NA,NA
"109",12531,1,0,0,612,"switch","letter","lettSwt","noRew","triangle","S",160,0,"","",NA,NA,"",NA,1.94322860700004,"f",0,NA,"inlab","MacIntel",NA,NA,NA,NA
"110",12531,1,0,0,612,"repeat","letter","lettRpt","noRew","circle","F",132,0,"","",NA,NA,"",NA,1.22583838499986,"d",1,NA,"inlab","MacIntel",NA,NA,NA,NA
"111",12531,1,0,0,612,"repeat","letter","lettRpt","noRew","hexagon","D",167,0,"","",NA,NA,"",NA,1.49139716200034,"d",2,NA,"inlab","MacIntel",NA,NA,NA,NA
"112",12531,1,0,0,612,"switch","number","numSwt","noRew","star","H",174,0,"","",NA,NA,"",NA,1.20208205599965,"k",3,NA,"inlab","MacIntel",NA,NA,NA,NA
"113",12531,1,0,0,612,"repeat","number","numRpt","noRew","hexagon","S",160,0,"","",NA,NA,"",NA,0.970185666999441,"k",4,NA,"inlab","MacIntel",NA,NA,NA,NA
"114",12531,1,0,0,612,"switch","letter","lettSwt","noRew","circle","F",132,0,"","",NA,NA,"",NA,0.599319024999659,"d",5,NA,"inlab","MacIntel",NA,NA,NA,NA
"115",12531,1,0,0,612,"switch","number","numSwt","noRew","triangle","D",167,0,"","",NA,NA,"",NA,1.40203282999983,"k",6,NA,"inlab","MacIntel",NA,NA,NA,NA
"116",12531,1,0,0,612,"repeat","number","numRpt","noRew","star","H",174,0,"","",NA,NA,"",NA,0.858811983000578,"k",7,NA,"inlab","MacIntel",NA,NA,NA,NA
"117",12531,1,0,0,612,"repeat","number","numRpt","noRew","star","S",174,0,"","",NA,NA,"",NA,0.826694591999967,"k",8,NA,"inlab","MacIntel",NA,NA,NA,NA
"118",12531,1,0,0,612,"switch","letter","lettSwt","noRew","circle","H",146,0,"","",NA,NA,"",NA,0.734015999999883,"d",9,NA,"inlab","MacIntel",NA,NA,NA,NA
"119",12531,1,0,0,612,"repeat","letter","lettRpt","noRew","circle","F",125,0,"","",NA,NA,"",NA,0.609985636999681,"d",10,NA,"inlab","MacIntel",NA,NA,NA,NA
"120",12531,1,0,0,612,"switch","number","numSwt","noRew","hexagon","B",139,0,"","",NA,NA,"",NA,0.756857968000531,"j",11,NA,"inlab","MacIntel",NA,NA,NA,NA
"121",12531,1,0,0,612,"repeat","number","numRpt","noRew","triangle","B",125,0,"","",NA,NA,"",NA,1.39251068000021,"j",12,NA,"inlab","MacIntel",NA,NA,NA,NA
"122",12531,1,0,0,612,"switch","letter","lettSwt","noRew","star","F",139,0,"","",NA,NA,"",NA,1.75434255800019,"d",13,NA,"inlab","MacIntel",NA,NA,NA,NA
"123",12531,1,0,0,612,"repeat","letter","lettRpt","noRew","star","H",160,0,"","",NA,NA,"",NA,1.13470894699958,"d",14,NA,"inlab","MacIntel",NA,NA,NA,NA
"124",12531,0,0,0,612,"switch","number",NA,"noRew","circle","S",167,0,"","",NA,NA,"",NA,0.707088368000313,"j",15,NA,"inlab","MacIntel",NA,NA,NA,NA
"125",12531,1,1,0,612,"repeat","number","numRpt","noRew","star","B",139,0,"","",NA,NA,"",NA,1.16848714700018,"j",16,NA,"inlab","MacIntel",NA,NA,NA,NA
"126",12531,1,0,0,612,"switch","letter","lettSwt","noRew","circle","Y",181,0,"","",NA,NA,"",NA,2.88281489000065,"f",17,NA,"inlab","MacIntel",NA,NA,NA,NA
"127",12531,0,0,0,612,"switch","number",NA,"noRew","hexagon","D",125,0,"","",NA,NA,"",NA,0.807353275999503,"k",18,NA,"inlab","MacIntel",NA,NA,NA,NA
"128",12531,0,1,0,612,"switch","letter",NA,"noRew","triangle","S",132,0,"","",NA,NA,"",NA,1.80948704499997,"d",19,NA,"inlab","MacIntel",NA,NA,NA,NA
"129",12531,1,1,0,612,"switch","number","numSwt","noRew","triangle","D",160,0,"","",NA,NA,"",NA,1.53843414300036,"k",20,NA,"inlab","MacIntel",NA,NA,NA,NA
"130",12531,0,0,0,612,"repeat","number",NA,"noRew","hexagon","Y",174,0,"","",NA,NA,"",NA,0.718570970999735,"j",21,NA,"inlab","MacIntel",NA,NA,NA,NA
"131",12531,1,1,0,612,"repeat","number","numRpt","noRew","circle","F",125,0,"","",NA,NA,"",NA,1.27633200600076,"j",22,NA,"inlab","MacIntel",NA,NA,NA,NA
"132",12531,0,0,0,612,"repeat","number",NA,"noRew","star","H",139,0,"","",NA,NA,"",NA,0.674604411999553,"k",23,NA,"inlab","MacIntel",NA,NA,NA,NA
"133",12531,0,1,0,612,"repeat","number",NA,"noRew","circle","B",174,0,"","",NA,NA,"",NA,2.21086548500034,"j",24,NA,"inlab","MacIntel",NA,NA,NA,NA
"134",12531,1,1,0,612,"switch","letter","lettSwt","noRew","star","H",167,0,"","",NA,NA,"",NA,2.0434090979993,"d",25,NA,"inlab","MacIntel",NA,NA,NA,NA
"135",12531,0,0,0,612,"switch","number",NA,"noRew","star","U",146,0,"","",NA,NA,"",NA,1.78624116800029,"k",26,NA,"inlab","MacIntel",NA,NA,NA,NA
"136",12531,1,1,0,612,"repeat","number","numRpt","noRew","hexagon","Y",160,0,"","",NA,NA,"",NA,1.59560973399994,"k",27,NA,"inlab","MacIntel",NA,NA,NA,NA
"137",12531,0,0,0,612,"switch","letter",NA,"noRew","star","S",139,0,"","",NA,NA,"",NA,1.09393398200018,"d",28,NA,"inlab","MacIntel",NA,NA,NA,NA
"138",12531,0,1,0,612,"switch","number",NA,"noRew","hexagon","B",160,0,"","",NA,NA,"",NA,1.26011839899957,"j",29,NA,"inlab","MacIntel",NA,NA,NA,NA
"139",12531,0,1,0,612,"switch","letter",NA,"noRew","triangle","W",146,0,"","",NA,NA,"",NA,0.901804742000877,"d",30,NA,"inlab","MacIntel",NA,NA,NA,NA
"140",12531,-1,1,0,612,"switch","no_choice",NA,"noRew","hexagon","U",181,0,"","",NA,NA,"",NA,NA,"None",31,NA,"inlab","MacIntel",NA,NA,NA,NA
"141",12531,1,0,0,612,"switch","letter","lettSwt","noRew","hexagon","W",167,0,"","",NA,NA,"",NA,0.753372912000032,"f",32,NA,"inlab","MacIntel",NA,NA,NA,NA
"142",12531,1,0,0,612,"repeat","letter","lettRpt","noRew","triangle","S",174,0,"","",NA,NA,"",NA,0.861498343999756,"f",33,NA,"inlab","MacIntel",NA,NA,NA,NA
"143",12531,1,0,0,612,"switch","number","numSwt","noRew","triangle","H",125,0,"","",NA,NA,"",NA,1.43041528000003,"j",34,NA,"inlab","MacIntel",NA,NA,NA,NA
"144",12531,1,0,0,612,"repeat","number","numRpt","noRew","star","Y",146,0,"","",NA,NA,"",NA,0.735115965999739,"j",35,NA,"inlab","MacIntel",NA,NA,NA,NA
"145",12531,1,0,0,612,"repeat","number","numRpt","noRew","star","Y",125,0,"","",NA,NA,"",NA,0.43478060300049,"j",36,NA,"inlab","MacIntel",NA,NA,NA,NA
"146",12531,0,0,0,612,"repeat","number",NA,"noRew","hexagon","B",174,0,"","",NA,NA,"",NA,0.595729171000585,"j",37,NA,"inlab","MacIntel",NA,NA,NA,NA
"147",12531,1,1,0,612,"repeat","number","numRpt","noRew","triangle","S",160,0,"","",NA,NA,"",NA,1.70315278499993,"k",38,NA,"inlab","MacIntel",NA,NA,NA,NA
"148",12531,1,0,0,612,"repeat","number","numRpt","noRew","hexagon","U",132,0,"","",NA,NA,"",NA,1.64408819299979,"j",39,NA,"inlab","MacIntel",NA,NA,NA,NA
"149",12531,1,0,0,612,"switch","letter","lettSwt","noRew","hexagon","S",167,0,"","",NA,NA,"",NA,0.795759906000512,"f",40,NA,"inlab","MacIntel",NA,NA,NA,NA
"150",12531,1,0,0,612,"repeat","letter","lettRpt","noRew","triangle","D",174,0,"","",NA,NA,"",NA,0.559354533000715,"d",41,NA,"inlab","MacIntel",NA,NA,NA,NA
"151",12531,1,0,0,612,"repeat","letter","lettRpt","noRew","hexagon","H",125,0,"","",NA,NA,"",NA,0.884671482000613,"d",42,NA,"inlab","MacIntel",NA,NA,NA,NA
"152",12531,1,0,0,612,"repeat","letter","lettRpt","noRew","star","F",146,0,"","",NA,NA,"",NA,0.601876478000577,"d",43,NA,"inlab","MacIntel",NA,NA,NA,NA
"153",12531,1,0,0,612,"repeat","letter","lettRpt","noRew","triangle","D",125,0,"","",NA,NA,"",NA,0.677404008000394,"d",44,NA,"inlab","MacIntel",NA,NA,NA,NA
"154",12531,1,0,0,612,"repeat","letter","lettRpt","noRew","hexagon","B",174,0,"","",NA,NA,"",NA,0.508036126000206,"d",45,NA,"inlab","MacIntel",NA,NA,NA,NA
"155",12531,1,0,0,612,"switch","number","numSwt","noRew","triangle","H",181,0,"","",NA,NA,"",NA,0.626543158000004,"k",46,NA,"inlab","MacIntel",NA,NA,NA,NA
"156",12531,0,0,0,612,"switch","letter",NA,"noRew","circle","S",132,0,"","",NA,NA,"",NA,2.54021851399966,"d",47,NA,"inlab","MacIntel",NA,NA,NA,NA
"157",12531,0,1,0,612,"switch","number",NA,"noRew","hexagon","D",174,0,"","",NA,NA,"",NA,0.815842065999732,"j",48,NA,"inlab","MacIntel",NA,NA,NA,NA
"158",12531,0,1,0,612,"switch","letter",NA,"noRew","circle","S",139,0,"","",NA,NA,"",NA,1.91335349399969,"d",49,NA,"inlab","MacIntel",NA,NA,NA,NA
"159",12531,1,1,0,612,"repeat","letter","lettRpt","noRew","circle","H",181,0,"","",NA,NA,"",NA,2.39737227500018,"d",50,NA,"inlab","MacIntel",NA,NA,NA,NA
"160",12531,0,0,0,612,"switch","number",NA,"noRew","triangle","W",167,0,"","",NA,NA,"",NA,0.807595794999997,"j",51,NA,"inlab","MacIntel",NA,NA,NA,NA
"161",12531,1,1,0,612,"repeat","number","numRpt","noRew","star","U",174,0,"","",NA,NA,"",NA,0.576432592999936,"k",52,NA,"inlab","MacIntel",NA,NA,NA,NA
"162",12531,1,0,0,612,"switch","letter","lettSwt","noRew","triangle","B",146,0,"","",NA,NA,"",NA,1.38007990100004,"d",53,NA,"inlab","MacIntel",NA,NA,NA,NA
"163",12531,1,0,0,612,"switch","number","numSwt","noRew","hexagon","D",160,0,"","",NA,NA,"",NA,1.71948003100033,"k",54,NA,"inlab","MacIntel",NA,NA,NA,NA
"164",12531,1,0,0,612,"switch","letter","lettSwt","noRew","star","F",139,0,"","",NA,NA,"",NA,0.907358674000079,"d",55,NA,"inlab","MacIntel",NA,NA,NA,NA
"165",12531,1,0,0,612,"repeat","letter","lettRpt","noRew","triangle","Y",146,0,"","",NA,NA,"",NA,1.0655713430001,"f",56,NA,"inlab","MacIntel",NA,NA,NA,NA
"166",12531,0,0,0,612,"repeat","letter",NA,"noRew","circle","S",132,0,"","",NA,NA,"",NA,1.57740902100022,"d",57,NA,"inlab","MacIntel",NA,NA,NA,NA
"167",12531,0,1,0,612,"switch","number",NA,"noRew","star","H",125,0,"","",NA,NA,"",NA,2.52344847300037,"k",58,NA,"inlab","MacIntel",NA,NA,NA,NA
"168",12531,1,1,0,612,"repeat","number","numRpt","noRew","triangle","B",139,0,"","",NA,NA,"",NA,0.311103284000183,"j",59,NA,"inlab","MacIntel",NA,NA,NA,NA
"169",12531,0,0,0,612,"switch","letter",NA,"noRew","star","H",160,0,"","",NA,NA,"",NA,0.46963513899982,"f",60,NA,"inlab","MacIntel",NA,NA,NA,NA
"170",12531,1,1,0,612,"repeat","letter","lettRpt","noRew","hexagon","B",174,0,"","",NA,NA,"",NA,0.0197748069999761,"d",61,NA,"inlab","MacIntel",NA,NA,NA,NA
"171",12531,0,0,0,612,"switch","number",NA,"noRew","circle","D",125,0,"","",NA,NA,"",NA,0.101294149000296,"k",62,NA,"inlab","MacIntel",NA,NA,NA,NA
"172",12531,1,1,0,612,"switch","letter","lettSwt","noRew","star","F",146,0,"","",NA,NA,"",NA,0.0929353810001885,"d",63,NA,"inlab","MacIntel",NA,NA,NA,NA
"173",12531,1,0,0,612,"repeat","letter","lettRpt","noRew","star","D",139,0,"","",NA,NA,"",NA,0.890252137000516,"d",NA,0,"inlab","MacIntel",NA,NA,NA,NA
"174",12531,0,0,0,612,"switch","number",NA,"noRew","circle","Y",125,0,"","",NA,NA,"",NA,0.535881291000351,"k",NA,1,"inlab","MacIntel",NA,NA,NA,NA
"175",12531,1,1,1,613,"switch","letter","lettSwt","noRew","circle","F",160,0,"","",NA,NA,"",NA,0.573233783999513,"d",NA,2,"inlab","MacIntel",NA,NA,NA,NA
"176",12531,1,0,10,623,"switch","number","numSwt","noRew","star","S",181,0,"","",NA,NA,"",NA,0.752050451000741,"k",NA,3,"inlab","MacIntel",NA,NA,NA,NA
"177",12531,1,0,1,624,"repeat","number","numRpt","noRew","circle","B",174,0,"","",NA,NA,"",NA,0.612181711000176,"k",NA,4,"inlab","MacIntel",NA,NA,NA,NA
"178",12531,1,0,0,624,"switch","letter","lettSwt","noRew","star","U",132,0,"","",NA,NA,"",NA,0.84642087400016,"f",NA,5,"inlab","MacIntel",NA,NA,NA,NA
"179",12531,0,0,0,624,"repeat","letter",NA,"noRew","star","H",146,0,"","",NA,NA,"",NA,0.511209579000479,"f",NA,6,"inlab","MacIntel",NA,NA,NA,NA
"180",12531,0,1,0,624,"repeat","letter",NA,"noRew","circle","W",167,0,"","",NA,NA,"",NA,0.460694926000087,"d",NA,7,"inlab","MacIntel",NA,NA,NA,NA
"181",12531,1,1,10,634,"switch","number","numSwt","noRew","star","D",139,0,"","",NA,NA,"",NA,0.799200109000139,"j",NA,8,"inlab","MacIntel",NA,NA,NA,NA
"182",12531,1,0,1,635,"switch","letter","lettSwt","noRew","circle","Y",125,0,"","",NA,NA,"",NA,0.912695299000461,"f",NA,9,"inlab","MacIntel",NA,NA,NA,NA
"183",12531,1,0,0,635,"repeat","letter","lettRpt","noRew","star","F",160,0,"","",NA,NA,"",NA,0.94221901300034,"d",NA,10,"inlab","MacIntel",NA,NA,NA,NA
"184",12531,1,0,1,636,"repeat","letter","lettRpt","noRew","circle","S",181,0,"","",NA,NA,"",NA,0.723284553999747,"f",NA,11,"inlab","MacIntel",NA,NA,NA,NA
"185",12531,0,0,0,636,"switch","number",NA,"noRew","star","B",174,0,"","",NA,NA,"",NA,0.665322006000224,"j",NA,12,"inlab","MacIntel",NA,NA,NA,NA
"186",12531,0,1,0,636,"repeat","number",NA,"noRew","circle","U",132,0,"","",NA,NA,"",NA,0.824244553999506,"k",NA,13,"inlab","MacIntel",NA,NA,NA,NA
"187",12531,1,1,1,637,"repeat","number","numRpt","noRew","circle","H",146,0,"","",NA,NA,"",NA,0.921968985000149,"j",NA,14,"inlab","MacIntel",NA,NA,NA,NA
"188",12531,0,0,0,637,"switch","letter",NA,"noRew","star","W",167,0,"","",NA,NA,"",NA,1.05419256499999,"d",NA,15,"inlab","MacIntel",NA,NA,NA,NA
"189",12531,0,1,0,637,"repeat","letter",NA,"noRew","star","F",132,0,"","",NA,NA,"",NA,0.0558962250001969,"f",NA,16,"inlab","MacIntel",NA,NA,NA,NA
"190",12531,1,1,1,638,"switch","number","numSwt","noRew","circle","B",181,0,"","",NA,NA,"",NA,1.03195279200054,"k",NA,17,"inlab","MacIntel",NA,NA,NA,NA
"191",12531,1,0,1,639,"switch","letter","lettSwt","noRew","circle","H",174,0,"","",NA,NA,"",NA,0.850246106999748,"d",NA,18,"inlab","MacIntel",NA,NA,NA,NA
"192",12531,1,0,0,639,"repeat","letter","lettRpt","noRew","star","D",160,0,"","",NA,NA,"",NA,0.874399851000362,"d",NA,19,"inlab","MacIntel",NA,NA,NA,NA
"193",12531,1,0,10,649,"repeat","letter","lettRpt","noRew","circle","Y",139,0,"","",NA,NA,"",NA,0.480839909999759,"f",NA,20,"inlab","MacIntel",NA,NA,NA,NA
"194",12531,1,0,1,650,"repeat","letter","lettRpt","noRew","star","S",146,0,"","",NA,NA,"",NA,0.601377628999671,"f",NA,21,"inlab","MacIntel",NA,NA,NA,NA
"195",12531,1,0,10,660,"switch","number","numSwt","noRew","star","W",125,0,"","",NA,NA,"",NA,0.78534464699942,"j",NA,22,"inlab","MacIntel",NA,NA,NA,NA
"196",12531,1,0,10,670,"switch","letter","lettSwt","noRew","circle","U",167,0,"","",NA,NA,"",NA,1.45263556500004,"f",NA,23,"inlab","MacIntel",NA,NA,NA,NA
"197",12531,1,0,1,671,"switch","number","numSwt","noRew","star","B",181,0,"","",NA,NA,"",NA,1.17032541800063,"k",NA,24,"inlab","MacIntel",NA,NA,NA,NA
"198",12531,1,0,10,681,"switch","letter","lettSwt","noRew","circle","S",174,0,"","",NA,NA,"",NA,0.523968724000497,"f",NA,25,"inlab","MacIntel",NA,NA,NA,NA
"199",12531,0,0,0,681,"repeat","letter",NA,"noRew","circle","F",160,0,"","",NA,NA,"",NA,0.70683125000005,"f",NA,26,"inlab","MacIntel",NA,NA,NA,NA
"200",12531,1,1,0,681,"repeat","letter","lettRpt","noRew","star","W",125,0,"","",NA,NA,"",NA,0.736663918000431,"f",NA,27,"inlab","MacIntel",NA,NA,NA,NA
"201",12531,1,0,1,682,"repeat","letter","lettRpt","noRew","circle","D",146,0,"","",NA,NA,"",NA,0.691721523000069,"d",NA,28,"inlab","MacIntel",NA,NA,NA,NA
"202",12531,0,0,0,682,"switch","number",NA,"noRew","star","H",132,0,"","",NA,NA,"",NA,0.66811584800007,"k",NA,29,"inlab","MacIntel",NA,NA,NA,NA
"203",12531,0,1,0,682,"switch","letter",NA,"noRew","star","U",167,0,"","",NA,NA,"",NA,0.562415955999768,"d",NA,30,"inlab","MacIntel",NA,NA,NA,NA
"204",12531,0,1,0,682,"repeat","letter",NA,"noRew","circle","Y",139,0,"","",NA,NA,"",NA,0.718619531000968,"d",NA,31,"inlab","MacIntel",NA,NA,NA,NA
"205",12531,1,1,1,683,"switch","number","numSwt","noRew","triangle","Y",167,1,"","",NA,NA,"",NA,1.04355602300029,"k",NA,0,"inlab","MacIntel",NA,NA,NA,NA
"206",12531,0,0,0,683,"switch","letter",NA,"noRew","hexagon","W",132,1,"","",NA,NA,"",NA,0.692106150999734,"d",NA,1,"inlab","MacIntel",NA,NA,NA,NA
"207",12531,1,1,0,683,"repeat","letter","lettRpt","noRew","hexagon","D",181,1,"","",NA,NA,"",NA,0.723819579000065,"d",NA,2,"inlab","MacIntel",NA,NA,NA,NA
"208",12531,0,0,0,683,"repeat","letter",NA,"noRew","triangle","H",160,1,"","",NA,NA,"",NA,0.801455514999816,"f",NA,3,"inlab","MacIntel",NA,NA,NA,NA
"209",12531,1,1,10,693,"switch","number","numSwt","noRew","hexagon","S",174,1,"","",NA,NA,"",NA,0.707051232999675,"k",NA,4,"inlab","MacIntel",NA,NA,NA,NA
"210",12531,0,0,0,693,"switch","letter",NA,"noRew","triangle","U",139,1,"","",NA,NA,"",NA,0.744974968999941,"d",NA,5,"inlab","MacIntel",NA,NA,NA,NA
"211",12531,1,1,0,693,"repeat","letter","lettRpt","noRew","hexagon","B",146,1,"","",NA,NA,"",NA,0.76738129100022,"d",NA,6,"inlab","MacIntel",NA,NA,NA,NA
"212",12531,1,0,1,694,"repeat","letter","lettRpt","noRew","triangle","F",125,1,"","",NA,NA,"",NA,0.794279225000082,"d",NA,7,"inlab","MacIntel",NA,NA,NA,NA
"213",12531,1,0,1,695,"repeat","letter","lettRpt","noRew","triangle","Y",167,1,"","",NA,NA,"",NA,1.41296232800005,"f",NA,8,"inlab","MacIntel",NA,NA,NA,NA
"214",12531,1,0,0,695,"repeat","letter","lettRpt","noRew","hexagon","W",132,1,"","",NA,NA,"",NA,0.878667001000849,"f",NA,9,"inlab","MacIntel",NA,NA,NA,NA
"215",12531,0,0,0,695,"repeat","letter",NA,"noRew","hexagon","D",181,1,"","",NA,NA,"",NA,0.685075335999954,"f",NA,10,"inlab","MacIntel",NA,NA,NA,NA
"216",12531,1,1,1,696,"switch","number","numSwt","noRew","triangle","H",160,1,"","",NA,NA,"",NA,0.851977746000102,"k",NA,11,"inlab","MacIntel",NA,NA,NA,NA
"217",12531,1,0,10,706,"switch","letter","lettSwt","noRew","triangle","S",174,1,"","",NA,NA,"",NA,1.05200111499971,"f",NA,12,"inlab","MacIntel",NA,NA,NA,NA
"218",12531,1,0,0,706,"repeat","letter","lettRpt","noRew","hexagon","U",139,1,"","",NA,NA,"",NA,1.14644789499971,"f",NA,13,"inlab","MacIntel",NA,NA,NA,NA
"219",12531,1,0,10,716,"repeat","letter","lettRpt","noRew","triangle","B",146,1,"","",NA,NA,"",NA,0.654652015000011,"d",NA,14,"inlab","MacIntel",NA,NA,NA,NA
"220",12531,1,0,10,726,"switch","number","numSwt","noRew","hexagon","F",125,1,"","",NA,NA,"",NA,0.574595724000119,"j",NA,15,"inlab","MacIntel",NA,NA,NA,NA
"221",12531,1,0,1,727,"repeat","number","numRpt","noRew","triangle","U",174,1,"","",NA,NA,"",NA,0.746105867000097,"k",NA,16,"inlab","MacIntel",NA,NA,NA,NA
"222",12531,0,0,0,727,"switch","letter",NA,"noRew","hexagon","F",139,1,"","",NA,NA,"",NA,0.702877762000298,"f",NA,17,"inlab","MacIntel",NA,NA,NA,NA
"223",12531,1,1,1,728,"repeat","letter","lettRpt","noRew","triangle","Y",181,1,"","",NA,NA,"",NA,0.717555635999361,"f",NA,18,"inlab","MacIntel",NA,NA,NA,NA
"224",12531,1,0,10,738,"repeat","letter","lettRpt","noRew","hexagon","W",160,1,"","",NA,NA,"",NA,0.586300550000033,"f",NA,19,"inlab","MacIntel",NA,NA,NA,NA
"225",12531,1,0,1,739,"repeat","letter","lettRpt","noRew","triangle","H",132,1,"","",NA,NA,"",NA,0.885651734000476,"d",NA,20,"inlab","MacIntel",NA,NA,NA,NA
"226",12531,0,0,0,739,"switch","number",NA,"noRew","hexagon","B",125,1,"","",NA,NA,"",NA,0.618670979999933,"k",NA,21,"inlab","MacIntel",NA,NA,NA,NA
"227",12531,1,1,1,740,"switch","letter","lettSwt","noRew","triangle","D",167,1,"","",NA,NA,"",NA,0.868513480000274,"d",NA,22,"inlab","MacIntel",NA,NA,NA,NA
"228",12531,1,0,0,740,"repeat","letter","lettRpt","noRew","hexagon","S",146,1,"","",NA,NA,"",NA,0.923271993000071,"f",NA,23,"inlab","MacIntel",NA,NA,NA,NA
"229",12531,1,0,1,741,"repeat","letter","lettRpt","noRew","triangle","F",167,1,"","",NA,NA,"",NA,0.918672076999883,"d",NA,24,"inlab","MacIntel",NA,NA,NA,NA
"230",12531,1,0,0,741,"repeat","letter","lettRpt","noRew","hexagon","B",181,1,"","",NA,NA,"",NA,0.795924724000088,"d",NA,25,"inlab","MacIntel",NA,NA,NA,NA
"231",12531,1,0,10,751,"repeat","letter","lettRpt","noRew","triangle","U",125,1,"","",NA,NA,"",NA,0.669544554000367,"f",NA,26,"inlab","MacIntel",NA,NA,NA,NA
"232",12531,1,0,0,751,"switch","number","numSwt","noRew","hexagon","H",132,1,"","",NA,NA,"",NA,0.806319955000163,"j",NA,27,"inlab","MacIntel",NA,NA,NA,NA
"233",12531,1,0,1,752,"repeat","number","numRpt","noRew","triangle","D",146,1,"","",NA,NA,"",NA,0.551674159000413,"j",NA,28,"inlab","MacIntel",NA,NA,NA,NA
"234",12531,1,0,0,752,"switch","letter","lettSwt","noRew","hexagon","S",160,1,"","",NA,NA,"",NA,0.923649617000137,"f",NA,29,"inlab","MacIntel",NA,NA,NA,NA
"235",12531,1,0,10,762,"repeat","letter","lettRpt","noRew","triangle","W",174,1,"","",NA,NA,"",NA,0.673283208000157,"f",NA,30,"inlab","MacIntel",NA,NA,NA,NA
"236",12531,0,0,0,762,"repeat","letter",NA,"noRew","hexagon","Y",139,1,"","",NA,NA,"",NA,1.31936735000045,"d",NA,31,"inlab","MacIntel",NA,NA,NA,NA
"237",12531,1,1,10,772,"switch","number","numSwt","noRew","circle","D",181,2,"","",NA,NA,"",NA,1.03769758199951,"k",NA,0,"inlab","MacIntel",NA,NA,NA,NA
"238",12531,0,0,0,772,"switch","letter",NA,"noRew","star","H",167,2,"","",NA,NA,"",NA,0.590505446999941,"f",NA,1,"inlab","MacIntel",NA,NA,NA,NA
"239",12531,1,1,0,772,"switch","number","numSwt","noRew","star","U",125,2,"","",NA,NA,"",NA,2.59263886300096,"j",NA,2,"inlab","MacIntel",NA,NA,NA,NA
"240",12531,1,0,10,782,"repeat","number","numRpt","noRew","circle","W",139,2,"","",NA,NA,"",NA,1.18574587400099,"j",NA,3,"inlab","MacIntel",NA,NA,NA,NA
"241",12531,0,0,0,782,"repeat","number",NA,"noRew","circle","F",132,2,"","",NA,NA,"",NA,0.755197291000059,"k",NA,4,"inlab","MacIntel",NA,NA,NA,NA
"242",12531,1,1,0,782,"repeat","number","numRpt","noRew","star","B",146,2,"","",NA,NA,"",NA,1.20766409100042,"j",NA,5,"inlab","MacIntel",NA,NA,NA,NA
"243",12531,-1,0,0,782,"switch","no_choice",NA,"noRew","star","S",174,2,"","",NA,NA,"",NA,NA,"None",NA,6,"inlab","MacIntel",NA,NA,NA,NA
"244",12531,1,0,1,783,"switch","number","numSwt","noRew","circle","Y",160,2,"","",NA,NA,"",NA,0.0964724510008637,"k",NA,7,"inlab","MacIntel",NA,NA,NA,NA
"245",12531,0,0,0,783,"repeat","number",NA,"noRew","star","D",181,2,"","",NA,NA,"",NA,0.039806733000205,"j",NA,8,"inlab","MacIntel",NA,NA,NA,NA
"246",12531,1,1,10,793,"repeat","number","numRpt","noRew","circle","H",167,2,"","",NA,NA,"",NA,0.0419731610004419,"k",NA,9,"inlab","MacIntel",NA,NA,NA,NA
"247",12531,1,0,1,794,"repeat","number","numRpt","noRew","circle","U",125,2,"","",NA,NA,"",NA,0.139342062000196,"j",NA,10,"inlab","MacIntel",NA,NA,NA,NA
"248",12531,0,0,0,794,"repeat","number",NA,"noRew","star","W",139,2,"","",NA,NA,"",NA,0.311693617000401,"k",NA,11,"inlab","MacIntel",NA,NA,NA,NA
"249",12531,0,1,0,794,"repeat","number",NA,"noRew","star","F",132,2,"","",NA,NA,"",NA,0.000557709000077011,"k",NA,12,"inlab","MacIntel",NA,NA,NA,NA
"250",12531,0,1,0,794,"repeat","number",NA,"noRew","circle","B",146,2,"","",NA,NA,"",NA,0.267443609000566,"k",NA,13,"inlab","MacIntel",NA,NA,NA,NA
"251",12531,1,1,10,804,"repeat","number","numRpt","noRew","star","S",174,2,"","",NA,NA,"",NA,0.337684830999478,"k",NA,14,"inlab","MacIntel",NA,NA,NA,NA
"252",12531,1,0,1,805,"repeat","number","numRpt","noRew","circle","Y",160,2,"","",NA,NA,"",NA,0.758782492000591,"k",NA,15,"inlab","MacIntel",NA,NA,NA,NA
"253",12531,0,0,0,805,"repeat","number",NA,"noRew","star","D",139,2,"","",NA,NA,"",NA,0.602054915000281,"k",NA,16,"inlab","MacIntel",NA,NA,NA,NA
"254",12531,1,1,1,806,"repeat","number","numRpt","noRew","circle","S",174,2,"","",NA,NA,"",NA,0.0124137620000511,"k",NA,17,"inlab","MacIntel",NA,NA,NA,NA
"255",12531,0,0,0,806,"repeat","number",NA,"noRew","star","B",160,2,"","",NA,NA,"",NA,0.00759554900059811,"j",NA,18,"inlab","MacIntel",NA,NA,NA,NA
"256",12531,0,1,0,806,"repeat","number",NA,"noRew","circle","Y",146,2,"","",NA,NA,"",NA,0.283434548999594,"k",NA,19,"inlab","MacIntel",NA,NA,NA,NA
"257",12531,0,1,0,806,"repeat","number",NA,"noRew","circle","W",167,2,"","",NA,NA,"",NA,0.290244294999411,"j",NA,20,"inlab","MacIntel",NA,NA,NA,NA
"258",12531,1,1,10,816,"repeat","number","numRpt","noRew","star","U",181,2,"","",NA,NA,"",NA,0.0500110289999611,"k",NA,21,"inlab","MacIntel",NA,NA,NA,NA
"259",12531,0,0,0,816,"repeat","number",NA,"noRew","star","H",125,2,"","",NA,NA,"",NA,2.60402796600056,"k",NA,22,"inlab","MacIntel",NA,NA,NA,NA
"260",12531,0,1,0,816,"repeat","number",NA,"noRew","circle","F",132,2,"","",NA,NA,"",NA,0.02636413800019,"k",NA,23,"inlab","MacIntel",NA,NA,NA,NA
"261",12531,1,1,10,826,"repeat","number","numRpt","noRew","star","S",167,2,"","",NA,NA,"",NA,0.0679837579996274,"k",NA,24,"inlab","MacIntel",NA,NA,NA,NA
"262",12531,1,0,10,836,"repeat","number","numRpt","noRew","circle","U",132,2,"","",NA,NA,"",NA,0.203762174000531,"j",NA,25,"inlab","MacIntel",NA,NA,NA,NA
"263",12531,1,0,10,846,"repeat","number","numRpt","noRew","star","W",139,2,"","",NA,NA,"",NA,0.0773778859997947,"j",NA,26,"inlab","MacIntel",NA,NA,NA,NA
"264",12531,0,0,0,846,"repeat","number",NA,"noRew","circle","H",160,2,"","",NA,NA,"",NA,0.125711929000772,"j",NA,27,"inlab","MacIntel",NA,NA,NA,NA
"265",12531,0,1,0,846,"repeat","number",NA,"noRew","star","D",146,2,"","",NA,NA,"",NA,0.0594700260003265,"k",NA,28,"inlab","MacIntel",NA,NA,NA,NA
"266",12531,1,1,1,847,"repeat","number","numRpt","noRew","circle","Y",174,2,"","",NA,NA,"",NA,0.243951312999798,"k",NA,29,"inlab","MacIntel",NA,NA,NA,NA
"267",12531,1,0,10,857,"repeat","number","numRpt","noRew","star","B",125,2,"","",NA,NA,"",NA,0.0690641189999042,"j",NA,30,"inlab","MacIntel",NA,NA,NA,NA
"268",12531,1,0,1,858,"repeat","number","numRpt","noRew","circle","F",181,2,"","",NA,NA,"",NA,0.0766959360003057,"k",NA,31,"inlab","MacIntel",NA,NA,NA,NA
"269",12531,1,0,0,858,"repeat","number","numRpt","noRew","star","W",167,3,"","",NA,NA,"",NA,0.201416007000716,"k",NA,0,"inlab","MacIntel",NA,NA,NA,NA
"270",12531,1,0,1,859,"repeat","number","numRpt","noRew","circle","B",174,3,"","",NA,NA,"",NA,0.0267960590003895,"k",NA,1,"inlab","MacIntel",NA,NA,NA,NA
"271",12531,1,0,0,859,"repeat","number","numRpt","noRew","star","S",139,3,"","",NA,NA,"",NA,0.101171608000641,"j",NA,2,"inlab","MacIntel",NA,NA,NA,NA
"272",12531,0,0,0,859,"repeat","number",NA,"noRew","circle","F",132,3,"","",NA,NA,"",NA,0.946380257999863,"k",NA,3,"inlab","MacIntel",NA,NA,NA,NA
"273",12531,1,1,0,859,"repeat","number","numRpt","noRew","star","D",125,3,"","",NA,NA,"",NA,0.201297062000322,"j",NA,4,"inlab","MacIntel",NA,NA,NA,NA
"274",12531,0,0,0,859,"repeat","number",NA,"noRew","circle","H",181,3,"","",NA,NA,"",NA,0.0343732859996635,"j",NA,5,"inlab","MacIntel",NA,NA,NA,NA
"275",12531,0,1,0,859,"repeat","number",NA,"noRew","star","U",160,3,"","",NA,NA,"",NA,0.0733360560002438,"j",NA,6,"inlab","MacIntel",NA,NA,NA,NA
"276",12531,1,1,1,860,"repeat","number","numRpt","noRew","circle","Y",146,3,"","",NA,NA,"",NA,0.312720946999889,"j",NA,7,"inlab","MacIntel",NA,NA,NA,NA
"277",12531,0,0,0,860,"repeat","number",NA,"noRew","circle","W",167,3,"","",NA,NA,"",NA,0.072342246000062,"j",NA,8,"inlab","MacIntel",NA,NA,NA,NA
"278",12531,1,1,10,870,"repeat","number","numRpt","noRew","star","B",174,3,"","",NA,NA,"",NA,0.0487703730000248,"k",NA,9,"inlab","MacIntel",NA,NA,NA,NA
"279",12531,1,0,1,871,"repeat","number","numRpt","noRew","circle","S",139,3,"","",NA,NA,"",NA,0.142256646000078,"j",NA,10,"inlab","MacIntel",NA,NA,NA,NA
"280",12531,0,0,0,871,"repeat","number",NA,"noRew","star","F",132,3,"","",NA,NA,"",NA,0.101090894999743,"k",NA,11,"inlab","MacIntel",NA,NA,NA,NA
"281",12531,1,1,1,872,"repeat","number","numRpt","noRew","circle","D",125,3,"","",NA,NA,"",NA,1.61939097999993,"j",NA,12,"inlab","MacIntel",NA,NA,NA,NA
"282",12531,0,0,0,872,"repeat","number",NA,"noRew","star","H",181,3,"","",NA,NA,"",NA,0.017530792999878,"j",NA,13,"inlab","MacIntel",NA,NA,NA,NA
"283",12531,0,1,0,872,"repeat","number",NA,"noRew","star","U",160,3,"","",NA,NA,"",NA,0.0959044360001826,"j",NA,14,"inlab","MacIntel",NA,NA,NA,NA
"284",12531,0,1,0,872,"repeat","number",NA,"noRew","circle","Y",146,3,"","",NA,NA,"",NA,0.0487908669997523,"k",NA,15,"inlab","MacIntel",NA,NA,NA,NA
"285",12531,1,1,0,872,"repeat","number","numRpt","noRew","star","D",125,3,"","",NA,NA,"",NA,2.28075511699944,"j",NA,16,"inlab","MacIntel",NA,NA,NA,NA
"286",12531,1,0,1,873,"repeat","number","numRpt","noRew","circle","Y",139,3,"","",NA,NA,"",NA,0.0397915040007319,"j",NA,17,"inlab","MacIntel",NA,NA,NA,NA
"287",12531,1,0,0,873,"repeat","number","numRpt","noRew","star","W",174,3,"","",NA,NA,"",NA,0.975755835000655,"k",NA,18,"inlab","MacIntel",NA,NA,NA,NA
"288",12531,0,0,0,873,"repeat","number",NA,"noRew","circle","S",167,3,"","",NA,NA,"",NA,0.274995228000535,"j",NA,19,"inlab","MacIntel",NA,NA,NA,NA
"289",12531,0,1,0,873,"repeat","number",NA,"noRew","circle","U",181,3,"","",NA,NA,"",NA,0.123215445999904,"j",NA,20,"inlab","MacIntel",NA,NA,NA,NA
"290",12531,0,1,0,873,"repeat","number",NA,"noRew","star","B",160,3,"","",NA,NA,"",NA,0.137282184000014,"j",NA,21,"inlab","MacIntel",NA,NA,NA,NA
"291",12531,1,1,0,873,"repeat","number","numRpt","noRew","star","F",132,3,"","",NA,NA,"",NA,2.32034105900084,"j",NA,22,"inlab","MacIntel",NA,NA,NA,NA
"292",12531,1,0,1,874,"repeat","number","numRpt","noRew","circle","H",146,3,"","",NA,NA,"",NA,0.0404747500001577,"j",NA,23,"inlab","MacIntel",NA,NA,NA,NA
"293",12531,1,0,0,874,"repeat","number","numRpt","noRew","star","S",125,3,"","",NA,NA,"",NA,0.353179978000753,"j",NA,24,"inlab","MacIntel",NA,NA,NA,NA
"294",12531,0,0,0,874,"repeat","number",NA,"noRew","circle","H",146,3,"","",NA,NA,"",NA,0.412228333999792,"k",NA,25,"inlab","MacIntel",NA,NA,NA,NA
"295",12531,0,1,0,874,"repeat","number",NA,"noRew","circle","Y",174,3,"","",NA,NA,"",NA,0.0950708770001256,"j",NA,26,"inlab","MacIntel",NA,NA,NA,NA
"296",12531,1,1,10,884,"repeat","number","numRpt","noRew","star","B",139,3,"","",NA,NA,"",NA,0.0532403060001343,"j",NA,27,"inlab","MacIntel",NA,NA,NA,NA
"297",12531,0,0,0,884,"repeat","number",NA,"noRew","circle","F",181,3,"","",NA,NA,"",NA,0.149459282000407,"j",NA,28,"inlab","MacIntel",NA,NA,NA,NA
"298",12531,0,1,0,884,"repeat","number",NA,"noRew","star","D",132,3,"","",NA,NA,"",NA,0.00999922000073639,"k",NA,29,"inlab","MacIntel",NA,NA,NA,NA
"299",12531,0,1,0,884,"repeat","number",NA,"noRew","star","W",160,3,"","",NA,NA,"",NA,0.13860790300032,"j",NA,30,"inlab","MacIntel",NA,NA,NA,NA
"300",12531,0,1,0,884,"repeat","number",NA,"noRew","circle","U",167,3,"","",NA,NA,"",NA,0.0326559620002627,"j",NA,31,"inlab","MacIntel",NA,NA,NA,NA
"301",12531,1,1,1,885,"repeat","number","numRpt","noRew","triangle","U",174,4,"","",NA,NA,"",NA,0.0427032189995771,"k",NA,0,"inlab","MacIntel",NA,NA,NA,NA
"302",12531,0,0,0,885,"repeat","number",NA,"noRew","hexagon","S",139,4,"","",NA,NA,"",NA,0.180446781000228,"k",NA,1,"inlab","MacIntel",NA,NA,NA,NA
"303",12531,1,1,0,885,"repeat","number","numRpt","noRew","hexagon","W",167,4,"","",NA,NA,"",NA,0.567928329000551,"k",NA,2,"inlab","MacIntel",NA,NA,NA,NA
"304",12531,1,0,10,895,"repeat","number","numRpt","noRew","triangle","H",132,4,"","",NA,NA,"",NA,0.110901423000087,"j",NA,3,"inlab","MacIntel",NA,NA,NA,NA
"305",12531,0,0,0,895,"repeat","number",NA,"noRew","hexagon","F",160,4,"","",NA,NA,"",NA,0.0382730030000857,"j",NA,4,"inlab","MacIntel",NA,NA,NA,NA
"306",12531,0,1,0,895,"repeat","number",NA,"noRew","triangle","B",146,4,"","",NA,NA,"",NA,0.318353383000158,"k",NA,5,"inlab","MacIntel",NA,NA,NA,NA
"307",12531,0,1,0,895,"repeat","number",NA,"noRew","triangle","Y",181,4,"","",NA,NA,"",NA,0.961265939000896,"j",NA,6,"inlab","MacIntel",NA,NA,NA,NA
"308",12531,1,1,0,895,"repeat","number","numRpt","noRew","hexagon","D",125,4,"","",NA,NA,"",NA,0.18615166400059,"j",NA,7,"inlab","MacIntel",NA,NA,NA,NA
"309",12531,0,0,0,895,"repeat","number",NA,"noRew","triangle","U",174,4,"","",NA,NA,"",NA,0.0395294140002989,"j",NA,8,"inlab","MacIntel",NA,NA,NA,NA
"310",12531,1,1,0,895,"repeat","number","numRpt","noRew","hexagon","S",139,4,"","",NA,NA,"",NA,1.64142183100057,"j",NA,9,"inlab","MacIntel",NA,NA,NA,NA
"311",12531,0,0,0,895,"repeat","number",NA,"noRew","triangle","W",167,4,"","",NA,NA,"",NA,0.0938249139994696,"j",NA,10,"inlab","MacIntel",NA,NA,NA,NA
"312",12531,0,1,0,895,"repeat","number",NA,"noRew","hexagon","H",132,4,"","",NA,NA,"",NA,0.0621808880000572,"k",NA,11,"inlab","MacIntel",NA,NA,NA,NA
"313",12531,1,1,1,896,"repeat","number","numRpt","noRew","triangle","F",160,4,"","",NA,NA,"",NA,0.0628729730001396,"k",NA,12,"inlab","MacIntel",NA,NA,NA,NA
"314",12531,1,0,0,896,"repeat","number","numRpt","noRew","hexagon","B",146,4,"","",NA,NA,"",NA,0.101364352000473,"j",NA,13,"inlab","MacIntel",NA,NA,NA,NA
"315",12531,0,0,0,896,"repeat","number",NA,"noRew","triangle","Y",181,4,"","",NA,NA,"",NA,0.0243648159998884,"j",NA,14,"inlab","MacIntel",NA,NA,NA,NA
"316",12531,1,1,0,896,"repeat","number","numRpt","noRew","hexagon","D",125,4,"","",NA,NA,"",NA,0.106691667000177,"j",NA,15,"inlab","MacIntel",NA,NA,NA,NA
"317",12531,1,0,0,896,"repeat","number","numRpt","noRew","hexagon","U",167,4,"","",NA,NA,"",NA,0.321158593000746,"k",NA,16,"inlab","MacIntel",NA,NA,NA,NA
"318",12531,1,0,10,906,"repeat","number","numRpt","noRew","triangle","F",139,4,"","",NA,NA,"",NA,0.000529176999862102,"j",NA,17,"inlab","MacIntel",NA,NA,NA,NA
"319",12531,0,0,0,906,"repeat","number",NA,"noRew","triangle","H",174,4,"","",NA,NA,"",NA,0.216270119000455,"j",NA,18,"inlab","MacIntel",NA,NA,NA,NA
"320",12531,0,1,0,906,"repeat","number",NA,"noRew","hexagon","W",181,4,"","",NA,NA,"",NA,0.421642201999475,"j",NA,19,"inlab","MacIntel",NA,NA,NA,NA
"321",12531,1,1,1,907,"repeat","number","numRpt","noRew","triangle","S",146,4,"","",NA,NA,"",NA,0.24562966700023,"j",NA,20,"inlab","MacIntel",NA,NA,NA,NA
"322",12531,0,0,0,907,"repeat","number",NA,"noRew","hexagon","B",160,4,"","",NA,NA,"",NA,0.0771667489993888,"j",NA,21,"inlab","MacIntel",NA,NA,NA,NA
"323",12531,0,1,0,907,"repeat","number",NA,"noRew","triangle","Y",132,4,"","",NA,NA,"",NA,0.0444320450001214,"k",NA,22,"inlab","MacIntel",NA,NA,NA,NA
"324",12531,1,1,10,917,"repeat","number","numRpt","noRew","hexagon","D",125,4,"","",NA,NA,"",NA,0.044772734000162,"j",NA,23,"inlab","MacIntel",NA,NA,NA,NA
"325",12531,1,0,10,927,"repeat","number","numRpt","noRew","hexagon","Y",181,4,"","",NA,NA,"",NA,0.0151685799996812,"k",NA,24,"inlab","MacIntel",NA,NA,NA,NA
"326",12531,0,0,0,927,"repeat","number",NA,"noRew","triangle","S",132,4,"","",NA,NA,"",NA,0.0954948860003242,"k",NA,25,"inlab","MacIntel",NA,NA,NA,NA
"327",12531,0,1,0,927,"repeat","number",NA,"noRew","triangle","H",174,4,"","",NA,NA,"",NA,0.00724956100066265,"j",NA,26,"inlab","MacIntel",NA,NA,NA,NA
"328",12531,1,1,0,927,"repeat","number","numRpt","noRew","hexagon","F",125,4,"","",NA,NA,"",NA,0.0956955650003692,"j",NA,27,"inlab","MacIntel",NA,NA,NA,NA
"329",12531,1,0,0,927,"repeat","number","numRpt","noRew","hexagon","B",160,4,"","",NA,NA,"",NA,1.20864298100014,"k",NA,28,"inlab","MacIntel",NA,NA,NA,NA
"330",12531,1,0,1,928,"repeat","number","numRpt","noRew","triangle","U",146,4,"","",NA,NA,"",NA,0.0729684760003693,"j",NA,29,"inlab","MacIntel",NA,NA,NA,NA
"331",12531,1,0,0,928,"repeat","number","numRpt","noRew","hexagon","D",139,4,"","",NA,NA,"",NA,0.127906772000188,"j",NA,30,"inlab","MacIntel",NA,NA,NA,NA
"332",12531,1,0,1,929,"repeat","number","numRpt","noRew","triangle","W",167,4,"","",NA,NA,"",NA,0.00692426900013743,"k",NA,31,"inlab","MacIntel",NA,NA,NA,NA
"333",12531,1,0,1,930,"repeat","number","numRpt","noRew","triangle","H",167,5,"","",NA,NA,"",NA,0.133428667000317,"k",NA,0,"inlab","MacIntel",NA,NA,NA,NA
"334",12531,1,0,0,930,"repeat","number","numRpt","noRew","hexagon","F",174,5,"","",NA,NA,"",NA,0.162494511000205,"k",NA,1,"inlab","MacIntel",NA,NA,NA,NA
"335",12531,0,0,0,930,"repeat","number",NA,"noRew","hexagon","S",181,5,"","",NA,NA,"",NA,0.0604136480001216,"j",NA,2,"inlab","MacIntel",NA,NA,NA,NA
"336",12531,0,1,0,930,"repeat","number",NA,"noRew","triangle","U",160,5,"","",NA,NA,"",NA,0.124334896000164,"j",NA,3,"inlab","MacIntel",NA,NA,NA,NA
"337",12531,1,1,1,931,"repeat","number","numRpt","noRew","triangle","W",146,5,"","",NA,NA,"",NA,0.0421923870003411,"j",NA,4,"inlab","MacIntel",NA,NA,NA,NA
"338",12531,1,0,10,941,"repeat","number","numRpt","noRew","hexagon","B",139,5,"","",NA,NA,"",NA,0.002368180000758,"j",NA,5,"inlab","MacIntel",NA,NA,NA,NA
"339",12531,1,0,1,942,"repeat","number","numRpt","noRew","triangle","D",125,5,"","",NA,NA,"",NA,0.138834046999818,"j",NA,6,"inlab","MacIntel",NA,NA,NA,NA
"340",12531,1,0,0,942,"repeat","number","numRpt","noRew","hexagon","Y",132,5,"","",NA,NA,"",NA,0.134895179000068,"j",NA,7,"inlab","MacIntel",NA,NA,NA,NA
"341",12531,0,0,0,942,"repeat","number",NA,"noRew","hexagon","H",167,5,"","",NA,NA,"",NA,0.116725936000421,"j",NA,8,"inlab","MacIntel",NA,NA,NA,NA
"342",12531,0,1,0,942,"repeat","number",NA,"noRew","triangle","F",174,5,"","",NA,NA,"",NA,0.00436996100006581,"j",NA,9,"inlab","MacIntel",NA,NA,NA,NA
"343",12531,1,1,10,952,"repeat","number","numRpt","noRew","hexagon","S",181,5,"","",NA,NA,"",NA,0.0117478400002256,"k",NA,10,"inlab","MacIntel",NA,NA,NA,NA
"344",12531,1,0,1,953,"repeat","number","numRpt","noRew","triangle","U",160,5,"","",NA,NA,"",NA,0.346649794999848,"k",NA,11,"inlab","MacIntel",NA,NA,NA,NA
"345",12531,1,0,1,954,"repeat","number","numRpt","noRew","triangle","W",146,5,"","",NA,NA,"",NA,0.0405099000004157,"j",NA,12,"inlab","MacIntel",NA,NA,NA,NA
"346",12531,1,0,0,954,"repeat","number","numRpt","noRew","hexagon","B",139,5,"","",NA,NA,"",NA,0.375300498000342,"j",NA,13,"inlab","MacIntel",NA,NA,NA,NA
"347",12531,-1,0,0,954,"switch","no_choice",NA,"noRew","hexagon","D",125,5,"","",NA,NA,"",NA,NA,"None",NA,14,"inlab","MacIntel",NA,NA,NA,NA
"348",12531,-1,0,0,954,"repeat","no_choice",NA,"noRew","triangle","Y",132,5,"","",NA,NA,"",NA,NA,"None",NA,15,"inlab","MacIntel",NA,NA,NA,NA
"349",12531,0,0,0,954,"switch","number",NA,"noRew","triangle","U",181,5,"","",NA,NA,"",NA,0.179501516000073,"j",NA,16,"inlab","MacIntel",NA,NA,NA,NA
"350",12531,-1,1,0,954,"switch","no_choice",NA,"noRew","hexagon","W",160,5,"","",NA,NA,"",NA,NA,"None",NA,17,"inlab","MacIntel",NA,NA,NA,NA
"351",12531,1,0,1,955,"switch","number","numSwt","noRew","triangle","F",146,5,"","",NA,NA,"",NA,0.0339586959994449,"j",NA,18,"inlab","MacIntel",NA,NA,NA,NA
"352",12531,0,0,0,955,"repeat","number",NA,"noRew","hexagon","H",174,5,"","",NA,NA,"",NA,0.0333250030003001,"j",NA,19,"inlab","MacIntel",NA,NA,NA,NA
"353",12531,0,1,0,955,"repeat","number",NA,"noRew","triangle","S",125,5,"","",NA,NA,"",NA,0.04163753200055,"k",NA,20,"inlab","MacIntel",NA,NA,NA,NA
"354",12531,-1,1,0,955,"switch","no_choice",NA,"noRew","hexagon","B",132,5,"","",NA,NA,"",NA,NA,"None",NA,21,"inlab","MacIntel",NA,NA,NA,NA
"355",12531,0,0,0,955,"switch","number",NA,"noRew","hexagon","Y",139,5,"","",NA,NA,"",NA,0.476094588000251,"k",NA,22,"inlab","MacIntel",NA,NA,NA,NA
"356",12531,1,1,10,965,"switch","letter","lettSwt","noRew","triangle","D",167,5,"","",NA,NA,"",NA,2.60351062499967,"d",NA,23,"inlab","MacIntel",NA,NA,NA,NA
"357",12531,1,0,10,975,"repeat","letter","lettRpt","noRew","hexagon","Y",146,5,"","",NA,NA,"",NA,0.593544646000282,"f",NA,24,"inlab","MacIntel",NA,NA,NA,NA
"358",12531,0,0,0,975,"repeat","letter",NA,"noRew","triangle","H",125,5,"","",NA,NA,"",NA,0.557605272999808,"f",NA,25,"inlab","MacIntel",NA,NA,NA,NA
"359",12531,1,1,10,985,"repeat","letter","lettRpt","noRew","hexagon","B",139,5,"","",NA,NA,"",NA,0.144158352999966,"d",NA,26,"inlab","MacIntel",NA,NA,NA,NA
"360",12531,1,0,1,986,"repeat","letter","lettRpt","noRew","triangle","D",160,5,"","",NA,NA,"",NA,0.126421514000413,"d",NA,27,"inlab","MacIntel",NA,NA,NA,NA
"361",12531,0,0,0,986,"repeat","letter",NA,"noRew","triangle","U",174,5,"","",NA,NA,"",NA,0.396223266000106,"d",NA,28,"inlab","MacIntel",NA,NA,NA,NA
"362",12531,1,1,10,996,"repeat","letter","lettRpt","noRew","hexagon","W",167,5,"","",NA,NA,"",NA,0.0102627869996468,"f",NA,29,"inlab","MacIntel",NA,NA,NA,NA
"363",12531,1,0,1,997,"switch","number","numSwt","noRew","triangle","F",132,5,"","",NA,NA,"",NA,0.0128783310005929,"j",NA,30,"inlab","MacIntel",NA,NA,NA,NA
"364",12531,1,0,10,1007,"switch","letter","lettSwt","noRew","hexagon","S",181,5,"","",NA,NA,"",NA,0.0622647459999826,"f",NA,31,"inlab","MacIntel",NA,NA,NA,NA
