"","participant","acc","E1","points_trial","points_cumul","alt","task","condition","rewExpect","rewCond","curr_shape","curr_topStim","curr_bottStim","blockNum","LShape_ID","RShape_ID","trainBlock","training.thisN","training_resp.keys","training_resp.rt","target_resp.rt","target_resp.keys","trials_norew.thisRepN","trials_rew.thisRepN","platform","OS","browser","xResolution","yResolution"
"1",27754,NA,NA,1,1,"","","training","","","",NA,"",NA,"circle","star",0,0,"l",1.84793417699984,NA,"",NA,NA,"inlab","MacIntel",NA,NA,NA
"2",27754,NA,NA,1,2,"","","training","","","",NA,"",NA,"star","circle",0,1,"l",3.58104087499669,NA,"",NA,NA,"inlab","MacIntel",NA,NA,NA
"3",27754,NA,NA,10,12,"","","training","","","",NA,"",NA,"hexagon","triangle",0,2,"a",4.53647349399762,NA,"",NA,NA,"inlab","MacIntel",NA,NA,NA
"4",27754,NA,NA,10,22,"","","training","","","",NA,"",NA,"hexagon","circle",0,3,"a",1.39897784399727,NA,"",NA,NA,"inlab","MacIntel",NA,NA,NA
"5",27754,NA,NA,10,32,"","","training","","","",NA,"",NA,"triangle","star",0,4,"a",1.93748184499782,NA,"",NA,NA,"inlab","MacIntel",NA,NA,NA
"6",27754,NA,NA,1,33,"","","training","","","",NA,"",NA,"hexagon","star",0,5,"a",1.23971955600064,NA,"",NA,NA,"inlab","MacIntel",NA,NA,NA
"7",27754,NA,NA,10,43,"","","training","","","",NA,"",NA,"star","triangle",0,6,"l",1.72554268599924,NA,"",NA,NA,"inlab","MacIntel",NA,NA,NA
"8",27754,NA,NA,10,53,"","","training","","","",NA,"",NA,"circle","triangle",0,7,"l",1.58028404699871,NA,"",NA,NA,"inlab","MacIntel",NA,NA,NA
"9",27754,NA,NA,10,63,"","","training","","","",NA,"",NA,"star","hexagon",0,8,"l",1.57652314899678,NA,"",NA,NA,"inlab","MacIntel",NA,NA,NA
"10",27754,NA,NA,1,64,"","","training","","","",NA,"",NA,"triangle","hexagon",0,9,"a",1.55105257399919,NA,"",NA,NA,"inlab","MacIntel",NA,NA,NA
"11",27754,NA,NA,1,65,"","","training","","","",NA,"",NA,"triangle","circle",0,10,"l",1.07687004599939,NA,"",NA,NA,"inlab","MacIntel",NA,NA,NA
"12",27754,NA,NA,1,66,"","","training","","","",NA,"",NA,"circle","hexagon",0,11,"l",1.48531314600041,NA,"",NA,NA,"inlab","MacIntel",NA,NA,NA
"13",27754,NA,NA,10,76,"","","training","","","",NA,"",NA,"circle","star",0,12,"a",1.02390890099923,NA,"",NA,NA,"inlab","MacIntel",NA,NA,NA
"14",27754,NA,NA,1,77,"","","training","","","",NA,"",NA,"star","circle",0,13,"l",1.73151952999979,NA,"",NA,NA,"inlab","MacIntel",NA,NA,NA
"15",27754,NA,NA,10,87,"","","training","","","",NA,"",NA,"circle","triangle",0,14,"a",2.83523330399839,NA,"",NA,NA,"inlab","MacIntel",NA,NA,NA
"16",27754,NA,NA,10,97,"","","training","","","",NA,"",NA,"hexagon","star",0,15,"a",1.52464728600171,NA,"",NA,NA,"inlab","MacIntel",NA,NA,NA
"17",27754,NA,NA,1,98,"","","training","","","",NA,"",NA,"hexagon","triangle",0,16,"l",2.3653794799975,NA,"",NA,NA,"inlab","MacIntel",NA,NA,NA
"18",27754,NA,NA,10,108,"","","training","","","",NA,"",NA,"star","triangle",0,17,"l",0.978811635999591,NA,"",NA,NA,"inlab","MacIntel",NA,NA,NA
"19",27754,NA,NA,1,109,"","","training","","","",NA,"",NA,"triangle","circle",0,18,"l",2.90329589400062,NA,"",NA,NA,"inlab","MacIntel",NA,NA,NA
"20",27754,NA,NA,1,110,"","","training","","","",NA,"",NA,"triangle","star",0,19,"a",1.35126783599844,NA,"",NA,NA,"inlab","MacIntel",NA,NA,NA
"21",27754,NA,NA,10,120,"","","training","","","",NA,"",NA,"triangle","hexagon",0,20,"a",1.34887455599892,NA,"",NA,NA,"inlab","MacIntel",NA,NA,NA
"22",27754,NA,NA,1,121,"","","training","","","",NA,"",NA,"hexagon","circle",0,21,"l",0.996022732000711,NA,"",NA,NA,"inlab","MacIntel",NA,NA,NA
"23",27754,NA,NA,10,131,"","","training","","","",NA,"",NA,"star","hexagon",0,22,"l",0.929283945999487,NA,"",NA,NA,"inlab","MacIntel",NA,NA,NA
"24",27754,NA,NA,1,132,"","","training","","","",NA,"",NA,"circle","hexagon",0,23,"a",2.14615786300055,NA,"",NA,NA,"inlab","MacIntel",NA,NA,NA
"25",27754,NA,NA,10,142,"","","training","","","",NA,"",NA,"circle","triangle",0,24,"l",1.46352939899953,NA,"",NA,NA,"inlab","MacIntel",NA,NA,NA
"26",27754,NA,NA,10,152,"","","training","","","",NA,"",NA,"hexagon","circle",0,25,"a",0.696522334998008,NA,"",NA,NA,"inlab","MacIntel",NA,NA,NA
"27",27754,NA,NA,10,162,"","","training","","","",NA,"",NA,"star","hexagon",0,26,"l",0.937419820998912,NA,"",NA,NA,"inlab","MacIntel",NA,NA,NA
"28",27754,NA,NA,1,163,"","","training","","","",NA,"",NA,"triangle","hexagon",0,27,"l",2.85836087599819,NA,"",NA,NA,"inlab","MacIntel",NA,NA,NA
"29",27754,NA,NA,1,164,"","","training","","","",NA,"",NA,"triangle","star",0,28,"a",0.970363628999621,NA,"",NA,NA,"inlab","MacIntel",NA,NA,NA
"30",27754,NA,NA,10,174,"","","training","","","",NA,"",NA,"star","triangle",0,29,"l",1.23209015699831,NA,"",NA,NA,"inlab","MacIntel",NA,NA,NA
"31",27754,NA,NA,1,175,"","","training","","","",NA,"",NA,"circle","star",0,30,"a",1.22030225799972,NA,"",NA,NA,"inlab","MacIntel",NA,NA,NA
"32",27754,NA,NA,10,185,"","","training","","","",NA,"",NA,"circle","hexagon",0,31,"a",3.45550207400083,NA,"",NA,NA,"inlab","MacIntel",NA,NA,NA
"33",27754,NA,NA,1,186,"","","training","","","",NA,"",NA,"hexagon","triangle",0,32,"l",3.12066209900149,NA,"",NA,NA,"inlab","MacIntel",NA,NA,NA
"34",27754,NA,NA,10,196,"","","training","","","",NA,"",NA,"hexagon","star",0,33,"a",2.44001539400051,NA,"",NA,NA,"inlab","MacIntel",NA,NA,NA
"35",27754,NA,NA,1,197,"","","training","","","",NA,"",NA,"star","circle",0,34,"l",0.736731170996791,NA,"",NA,NA,"inlab","MacIntel",NA,NA,NA
"36",27754,NA,NA,10,207,"","","training","","","",NA,"",NA,"triangle","circle",0,35,"a",1.09499544500068,NA,"",NA,NA,"inlab","MacIntel",NA,NA,NA
"37",27754,NA,NA,10,217,"","","training","","","",NA,"",NA,"circle","triangle",1,0,"l",2.54307108599824,NA,"",NA,NA,"inlab","MacIntel",NA,NA,NA
"38",27754,NA,NA,1,218,"","","training","","","",NA,"",NA,"star","triangle",1,1,"l",0.951158625000971,NA,"",NA,NA,"inlab","MacIntel",NA,NA,NA
"39",27754,NA,NA,10,228,"","","training","","","",NA,"",NA,"hexagon","circle",1,2,"a",2.8055967140026,NA,"",NA,NA,"inlab","MacIntel",NA,NA,NA
"40",27754,NA,NA,1,229,"","","training","","","",NA,"",NA,"star","hexagon",1,3,"l",1.50375617199825,NA,"",NA,NA,"inlab","MacIntel",NA,NA,NA
"41",27754,NA,NA,10,239,"","","training","","","",NA,"",NA,"hexagon","triangle",1,4,"a",2.19293194899728,NA,"",NA,NA,"inlab","MacIntel",NA,NA,NA
"42",27754,NA,NA,1,240,"","","training","","","",NA,"",NA,"circle","hexagon",1,5,"a",2.73354914900119,NA,"",NA,NA,"inlab","MacIntel",NA,NA,NA
"43",27754,NA,NA,10,250,"","","training","","","",NA,"",NA,"hexagon","star",1,6,"a",1.01288068199938,NA,"",NA,NA,"inlab","MacIntel",NA,NA,NA
"44",27754,NA,NA,1,251,"","","training","","","",NA,"",NA,"star","circle",1,7,"l",1.13599843799966,NA,"",NA,NA,"inlab","MacIntel",NA,NA,NA
"45",27754,NA,NA,1,252,"","","training","","","",NA,"",NA,"triangle","hexagon",1,8,"l",3.85427068399804,NA,"",NA,NA,"inlab","MacIntel",NA,NA,NA
"46",27754,NA,NA,1,253,"","","training","","","",NA,"",NA,"triangle","star",1,9,"a",2.91969778199928,NA,"",NA,NA,"inlab","MacIntel",NA,NA,NA
"47",27754,NA,NA,10,263,"","","training","","","",NA,"",NA,"triangle","circle",1,10,"a",2.01415731299858,NA,"",NA,NA,"inlab","MacIntel",NA,NA,NA
"48",27754,NA,NA,1,264,"","","training","","","",NA,"",NA,"circle","star",1,11,"l",1.48947893199875,NA,"",NA,NA,"inlab","MacIntel",NA,NA,NA
"49",27754,NA,NA,10,274,"","","training","","","",NA,"",NA,"hexagon","star",1,12,"a",1.00294836300236,NA,"",NA,NA,"inlab","MacIntel",NA,NA,NA
"50",27754,NA,NA,10,284,"","","training","","","",NA,"",NA,"star","hexagon",1,13,"l",0.966861690998485,NA,"",NA,NA,"inlab","MacIntel",NA,NA,NA
"51",27754,NA,NA,10,294,"","","training","","","",NA,"",NA,"star","circle",1,14,"a",1.66912914499699,NA,"",NA,NA,"inlab","MacIntel",NA,NA,NA
"52",27754,NA,NA,1,295,"","","training","","","",NA,"",NA,"circle","star",1,15,"l",2.57597313999941,NA,"",NA,NA,"inlab","MacIntel",NA,NA,NA
"53",27754,NA,NA,10,305,"","","training","","","",NA,"",NA,"triangle","circle",1,16,"a",7.59475579300124,NA,"",NA,NA,"inlab","MacIntel",NA,NA,NA
"54",27754,NA,NA,10,315,"","","training","","","",NA,"",NA,"hexagon","triangle",1,17,"a",1.7064960860007,NA,"",NA,NA,"inlab","MacIntel",NA,NA,NA
"55",27754,NA,NA,1,316,"","","training","","","",NA,"",NA,"triangle","star",1,18,"a",0.914681775997451,NA,"",NA,NA,"inlab","MacIntel",NA,NA,NA
"56",27754,NA,NA,1,317,"","","training","","","",NA,"",NA,"circle","triangle",1,19,"l",1.84374635600034,NA,"",NA,NA,"inlab","MacIntel",NA,NA,NA
"57",27754,NA,NA,10,327,"","","training","","","",NA,"",NA,"hexagon","circle",1,20,"a",2.1330902769987,NA,"",NA,NA,"inlab","MacIntel",NA,NA,NA
"58",27754,NA,NA,10,337,"","","training","","","",NA,"",NA,"star","triangle",1,21,"l",1.03598742599934,NA,"",NA,NA,"inlab","MacIntel",NA,NA,NA
"59",27754,NA,NA,1,338,"","","training","","","",NA,"",NA,"triangle","hexagon",1,22,"l",1.14355542099656,NA,"",NA,NA,"inlab","MacIntel",NA,NA,NA
"60",27754,NA,NA,1,339,"","","training","","","",NA,"",NA,"circle","hexagon",1,23,"l",1.26953768599924,NA,"",NA,NA,"inlab","MacIntel",NA,NA,NA
"61",27754,NA,NA,10,349,"","","training","","","",NA,"",NA,"circle","hexagon",1,24,"l",0.798126185000001,NA,"",NA,NA,"inlab","MacIntel",NA,NA,NA
"62",27754,NA,NA,10,359,"","","training","","","",NA,"",NA,"circle","star",1,25,"l",1.97956150000027,NA,"",NA,NA,"inlab","MacIntel",NA,NA,NA
"63",27754,NA,NA,1,360,"","","training","","","",NA,"",NA,"star","triangle",1,26,"l",1.74696050199782,NA,"",NA,NA,"inlab","MacIntel",NA,NA,NA
"64",27754,NA,NA,10,370,"","","training","","","",NA,"",NA,"triangle","star",1,27,"a",3.59994025100241,NA,"",NA,NA,"inlab","MacIntel",NA,NA,NA
"65",27754,NA,NA,1,371,"","","training","","","",NA,"",NA,"hexagon","circle",1,28,"l",5.33991498999967,NA,"",NA,NA,"inlab","MacIntel",NA,NA,NA
"66",27754,NA,NA,10,381,"","","training","","","",NA,"",NA,"triangle","hexagon",1,29,"l",1.62162502700085,NA,"",NA,NA,"inlab","MacIntel",NA,NA,NA
"67",27754,NA,NA,10,391,"","","training","","","",NA,"",NA,"triangle","circle",1,30,"a",3.84167033399717,NA,"",NA,NA,"inlab","MacIntel",NA,NA,NA
"68",27754,NA,NA,10,401,"","","training","","","",NA,"",NA,"star","circle",1,31,"a",1.98614191099841,NA,"",NA,NA,"inlab","MacIntel",NA,NA,NA
"69",27754,NA,NA,1,402,"","","training","","","",NA,"",NA,"circle","triangle",1,32,"a",2.79146375900018,NA,"",NA,NA,"inlab","MacIntel",NA,NA,NA
"70",27754,NA,NA,10,412,"","","training","","","",NA,"",NA,"hexagon","triangle",1,33,"a",1.39016351599639,NA,"",NA,NA,"inlab","MacIntel",NA,NA,NA
"71",27754,NA,NA,10,422,"","","training","","","",NA,"",NA,"star","hexagon",1,34,"l",1.81521175599846,NA,"",NA,NA,"inlab","MacIntel",NA,NA,NA
"72",27754,NA,NA,1,423,"","","training","","","",NA,"",NA,"hexagon","star",1,35,"l",1.71481618399775,NA,"",NA,NA,"inlab","MacIntel",NA,NA,NA
"73",27754,NA,NA,1,424,"","","training","","","",NA,"",NA,"star","triangle",2,0,"l",1.74389516800147,NA,"",NA,NA,"inlab","MacIntel",NA,NA,NA
"74",27754,NA,NA,10,434,"","","training","","","",NA,"",NA,"hexagon","star",2,1,"a",1.04390573699857,NA,"",NA,NA,"inlab","MacIntel",NA,NA,NA
"75",27754,NA,NA,10,444,"","","training","","","",NA,"",NA,"star","circle",2,2,"a",2.47709045100055,NA,"",NA,NA,"inlab","MacIntel",NA,NA,NA
"76",27754,NA,NA,10,454,"","","training","","","",NA,"",NA,"circle","triangle",2,3,"l",2.27776885799903,NA,"",NA,NA,"inlab","MacIntel",NA,NA,NA
"77",27754,NA,NA,10,464,"","","training","","","",NA,"",NA,"triangle","circle",2,4,"a",1.5016313269989,NA,"",NA,NA,"inlab","MacIntel",NA,NA,NA
"78",27754,NA,NA,10,474,"","","training","","","",NA,"",NA,"triangle","hexagon",2,5,"l",1.49324109699955,NA,"",NA,NA,"inlab","MacIntel",NA,NA,NA
"79",27754,NA,NA,10,484,"","","training","","","",NA,"",NA,"circle","star",2,6,"l",3.20768114900056,NA,"",NA,NA,"inlab","MacIntel",NA,NA,NA
"80",27754,NA,NA,10,494,"","","training","","","",NA,"",NA,"hexagon","circle",2,7,"a",1.42616740299854,NA,"",NA,NA,"inlab","MacIntel",NA,NA,NA
"81",27754,NA,NA,1,495,"","","training","","","",NA,"",NA,"hexagon","triangle",2,8,"a",1.59739588600132,NA,"",NA,NA,"inlab","MacIntel",NA,NA,NA
"82",27754,NA,NA,10,505,"","","training","","","",NA,"",NA,"star","hexagon",2,9,"l",1.92236638599934,NA,"",NA,NA,"inlab","MacIntel",NA,NA,NA
"83",27754,NA,NA,1,506,"","","training","","","",NA,"",NA,"triangle","star",2,10,"a",1.49680966099913,NA,"",NA,NA,"inlab","MacIntel",NA,NA,NA
"84",27754,NA,NA,1,507,"","","training","","","",NA,"",NA,"circle","hexagon",2,11,"l",7.71365862799939,NA,"",NA,NA,"inlab","MacIntel",NA,NA,NA
"85",27754,NA,NA,10,517,"","","training","","","",NA,"",NA,"triangle","hexagon",2,12,"l",4.04647309999928,NA,"",NA,NA,"inlab","MacIntel",NA,NA,NA
"86",27754,NA,NA,10,527,"","","training","","","",NA,"",NA,"hexagon","circle",2,13,"a",0.646015800000896,NA,"",NA,NA,"inlab","MacIntel",NA,NA,NA
"87",27754,NA,NA,1,528,"","","training","","","",NA,"",NA,"circle","star",2,14,"a",1.78465483599939,NA,"",NA,NA,"inlab","MacIntel",NA,NA,NA
"88",27754,NA,NA,10,538,"","","training","","","",NA,"",NA,"star","hexagon",2,15,"l",1.27769098800127,NA,"",NA,NA,"inlab","MacIntel",NA,NA,NA
"89",27754,NA,NA,10,548,"","","training","","","",NA,"",NA,"hexagon","triangle",2,16,"a",1.09505698499925,NA,"",NA,NA,"inlab","MacIntel",NA,NA,NA
"90",27754,NA,NA,10,558,"","","training","","","",NA,"",NA,"star","triangle",2,17,"l",1.58336131499891,NA,"",NA,NA,"inlab","MacIntel",NA,NA,NA
"91",27754,NA,NA,10,568,"","","training","","","",NA,"",NA,"triangle","circle",2,18,"l",2.67698604299949,NA,"",NA,NA,"inlab","MacIntel",NA,NA,NA
"92",27754,NA,NA,1,569,"","","training","","","",NA,"",NA,"triangle","star",2,19,"a",2.53332141099963,NA,"",NA,NA,"inlab","MacIntel",NA,NA,NA
"93",27754,NA,NA,1,570,"","","training","","","",NA,"",NA,"hexagon","star",2,20,"a",1.30013592999967,NA,"",NA,NA,"inlab","MacIntel",NA,NA,NA
"94",27754,NA,NA,1,571,"","","training","","","",NA,"",NA,"star","circle",2,21,"l",2.85407241600115,NA,"",NA,NA,"inlab","MacIntel",NA,NA,NA
"95",27754,NA,NA,1,572,"","","training","","","",NA,"",NA,"circle","hexagon",2,22,"l",1.21455429599882,NA,"",NA,NA,"inlab","MacIntel",NA,NA,NA
"96",27754,NA,NA,1,573,"","","training","","","",NA,"",NA,"circle","triangle",2,23,"a",2.82632690399987,NA,"",NA,NA,"inlab","MacIntel",NA,NA,NA
"97",27754,NA,NA,10,583,"","","training","","","",NA,"",NA,"star","triangle",2,24,"l",1.25303243899907,NA,"",NA,NA,"inlab","MacIntel",NA,NA,NA
"98",27754,NA,NA,1,584,"","","training","","","",NA,"",NA,"triangle","circle",2,25,"a",2.80061974899945,NA,"",NA,NA,"inlab","MacIntel",NA,NA,NA
"99",27754,NA,NA,1,585,"","","training","","","",NA,"",NA,"circle","star",2,26,"l",2.21131968600093,NA,"",NA,NA,"inlab","MacIntel",NA,NA,NA
"100",27754,NA,NA,10,595,"","","training","","","",NA,"",NA,"hexagon","star",2,27,"a",0.862521933002427,NA,"",NA,NA,"inlab","MacIntel",NA,NA,NA
"101",27754,NA,NA,1,596,"","","training","","","",NA,"",NA,"circle","triangle",2,28,"a",2.3839345790002,NA,"",NA,NA,"inlab","MacIntel",NA,NA,NA
"102",27754,NA,NA,10,606,"","","training","","","",NA,"",NA,"star","hexagon",2,29,"l",1.06051753799693,NA,"",NA,NA,"inlab","MacIntel",NA,NA,NA
"103",27754,NA,NA,10,616,"","","training","","","",NA,"",NA,"hexagon","circle",2,30,"a",0.905890770998667,NA,"",NA,NA,"inlab","MacIntel",NA,NA,NA
"104",27754,NA,NA,10,626,"","","training","","","",NA,"",NA,"circle","hexagon",2,31,"l",1.11167528599981,NA,"",NA,NA,"inlab","MacIntel",NA,NA,NA
"105",27754,NA,NA,10,636,"","","training","","","",NA,"",NA,"triangle","star",2,32,"l",1.75981270800185,NA,"",NA,NA,"inlab","MacIntel",NA,NA,NA
"106",27754,NA,NA,10,646,"","","training","","","",NA,"",NA,"triangle","hexagon",2,33,"l",1.33441964899976,NA,"",NA,NA,"inlab","MacIntel",NA,NA,NA
"107",27754,NA,NA,10,656,"","","training","","","",NA,"",NA,"star","circle",2,34,"a",0.940772514997661,NA,"",NA,NA,"inlab","MacIntel",NA,NA,NA
"108",27754,NA,NA,10,666,"","","training","","","",NA,"",NA,"hexagon","triangle",2,35,"a",0.963797286000045,NA,"",NA,NA,"inlab","MacIntel",NA,NA,NA
"109",27754,1,0,0,666,"switch","number","numSwt","","noRew","hexagon",174,"H",0,"","",NA,NA,"",NA,1.32016849800129,"f",0,NA,"inlab","MacIntel",NA,NA,NA
"110",27754,1,0,0,666,"repeat","number","numRpt","","noRew","circle",181,"Y",0,"","",NA,NA,"",NA,0.926809174998198,"f",1,NA,"inlab","MacIntel",NA,NA,NA
"111",27754,1,0,0,666,"switch","letter","lettSwt","","noRew","circle",167,"W",0,"","",NA,NA,"",NA,0.50144019399886,"k",2,NA,"inlab","MacIntel",NA,NA,NA
"112",27754,1,0,0,666,"switch","number","numSwt","","noRew","hexagon",139,"F",0,"","",NA,NA,"",NA,0.709067635998508,"d",3,NA,"inlab","MacIntel",NA,NA,NA
"113",27754,1,0,0,666,"switch","letter","lettSwt","","noRew","star",174,"H",0,"","",NA,NA,"",NA,1.68596441499903,"j",4,NA,"inlab","MacIntel",NA,NA,NA
"114",27754,1,0,0,666,"repeat","letter","lettRpt","","noRew","hexagon",181,"Y",0,"","",NA,NA,"",NA,0.853986580001219,"k",5,NA,"inlab","MacIntel",NA,NA,NA
"115",27754,1,0,0,666,"repeat","letter","lettRpt","","noRew","star",167,"W",0,"","",NA,NA,"",NA,0.590709766001964,"k",6,NA,"inlab","MacIntel",NA,NA,NA
"116",27754,1,0,0,666,"repeat","letter","lettRpt","","noRew","circle",139,"F",0,"","",NA,NA,"",NA,1.15541327100073,"j",7,NA,"inlab","MacIntel",NA,NA,NA
"117",27754,1,0,0,666,"switch","number","numSwt","","noRew","hexagon",139,"U",0,"","",NA,NA,"",NA,0.785847152001224,"d",8,NA,"inlab","MacIntel",NA,NA,NA
"118",27754,1,0,0,666,"repeat","number","numRpt","","noRew","circle",167,"B",0,"","",NA,NA,"",NA,0.93357239100078,"f",9,NA,"inlab","MacIntel",NA,NA,NA
"119",27754,1,0,0,666,"switch","letter","lettSwt","","noRew","star",160,"W",0,"","",NA,NA,"",NA,1.2293248499991,"k",10,NA,"inlab","MacIntel",NA,NA,NA
"120",27754,1,0,0,666,"switch","number","numSwt","","noRew","hexagon",146,"F",0,"","",NA,NA,"",NA,1.49614830199789,"d",11,NA,"inlab","MacIntel",NA,NA,NA
"121",27754,1,0,0,666,"repeat","number","numRpt","","noRew","hexagon",181,"F",0,"","",NA,NA,"",NA,0.784366076000879,"f",12,NA,"inlab","MacIntel",NA,NA,NA
"122",27754,1,0,0,666,"switch","letter","lettSwt","","noRew","star",174,"Y",0,"","",NA,NA,"",NA,1.21304706700175,"k",13,NA,"inlab","MacIntel",NA,NA,NA
"123",27754,1,0,0,666,"repeat","letter","lettRpt","","noRew","hexagon",146,"D",0,"","",NA,NA,"",NA,0.961312454001018,"j",14,NA,"inlab","MacIntel",NA,NA,NA
"124",27754,1,0,0,666,"repeat","letter","lettRpt","","noRew","triangle",139,"S",0,"","",NA,NA,"",NA,0.678743667001982,"k",15,NA,"inlab","MacIntel",NA,NA,NA
"125",27754,1,0,0,666,"switch","number","numSwt","","noRew","triangle",174,"Y",0,"","",NA,NA,"",NA,0.791959356000007,"f",16,NA,"inlab","MacIntel",NA,NA,NA
"126",27754,1,0,0,666,"repeat","number","numRpt","","noRew","star",181,"B",0,"","",NA,NA,"",NA,0.653306250998867,"f",17,NA,"inlab","MacIntel",NA,NA,NA
"127",27754,1,0,0,666,"repeat","number","numRpt","","noRew","triangle",167,"D",0,"","",NA,NA,"",NA,0.629448404000868,"f",18,NA,"inlab","MacIntel",NA,NA,NA
"128",27754,1,0,0,666,"repeat","number","numRpt","","noRew","star",125,"S",0,"","",NA,NA,"",NA,0.803134403999138,"d",19,NA,"inlab","MacIntel",NA,NA,NA
"129",27754,1,0,0,666,"repeat","number","numRpt","","noRew","hexagon",125,"B",0,"","",NA,NA,"",NA,0.862558991997503,"d",20,NA,"inlab","MacIntel",NA,NA,NA
"130",27754,1,0,0,666,"switch","letter","lettSwt","","noRew","star",160,"W",0,"","",NA,NA,"",NA,0.799795868999354,"k",21,NA,"inlab","MacIntel",NA,NA,NA
"131",27754,1,0,0,666,"switch","number","numSwt","","noRew","hexagon",146,"U",0,"","",NA,NA,"",NA,1.13209768500019,"d",22,NA,"inlab","MacIntel",NA,NA,NA
"132",27754,1,0,0,666,"switch","letter","lettSwt","","noRew","star",167,"S",0,"","",NA,NA,"",NA,1.21145704199807,"k",23,NA,"inlab","MacIntel",NA,NA,NA
"133",27754,1,0,0,666,"switch","number","numSwt","","noRew","triangle",139,"W",0,"","",NA,NA,"",NA,1.07156269100233,"d",24,NA,"inlab","MacIntel",NA,NA,NA
"134",27754,1,0,0,666,"repeat","number","numRpt","","noRew","hexagon",167,"F",0,"","",NA,NA,"",NA,0.792711648999102,"f",25,NA,"inlab","MacIntel",NA,NA,NA
"135",27754,1,0,0,666,"switch","letter","lettSwt","","noRew","triangle",146,"U",0,"","",NA,NA,"",NA,0.956785522997961,"k",26,NA,"inlab","MacIntel",NA,NA,NA
"136",27754,1,0,0,666,"switch","number","numSwt","","noRew","hexagon",132,"B",0,"","",NA,NA,"",NA,1.01027696399979,"d",27,NA,"inlab","MacIntel",NA,NA,NA
"137",27754,1,0,0,666,"switch","letter","lettSwt","","noRew","hexagon",181,"F",0,"","",NA,NA,"",NA,1.15792007999698,"j",28,NA,"inlab","MacIntel",NA,NA,NA
"138",27754,1,0,0,666,"repeat","letter","lettRpt","","noRew","circle",139,"Y",0,"","",NA,NA,"",NA,0.515373581998574,"k",29,NA,"inlab","MacIntel",NA,NA,NA
"139",27754,1,0,0,666,"repeat","letter","lettRpt","","noRew","circle",125,"D",0,"","",NA,NA,"",NA,0.763206532999902,"j",30,NA,"inlab","MacIntel",NA,NA,NA
"140",27754,1,0,0,666,"switch","number","numSwt","","noRew","star",132,"U",0,"","",NA,NA,"",NA,1.74625034400015,"d",31,NA,"inlab","MacIntel",NA,NA,NA
"141",27754,1,0,0,666,"switch","letter","lettSwt","","noRew","hexagon",160,"H",0,"","",NA,NA,"",NA,1.90372408400071,"j",32,NA,"inlab","MacIntel",NA,NA,NA
"142",27754,1,0,0,666,"switch","number","numSwt","","noRew","triangle",125,"U",0,"","",NA,NA,"",NA,0.644718453000678,"d",33,NA,"inlab","MacIntel",NA,NA,NA
"143",27754,1,0,0,666,"repeat","number","numRpt","","noRew","star",167,"D",0,"","",NA,NA,"",NA,1.03943915299897,"f",34,NA,"inlab","MacIntel",NA,NA,NA
"144",27754,1,0,0,666,"repeat","number","numRpt","","noRew","triangle",132,"B",0,"","",NA,NA,"",NA,0.8733020030013,"d",35,NA,"inlab","MacIntel",NA,NA,NA
"145",27754,1,0,0,666,"repeat","number","numRpt","","noRew","star",160,"Y",0,"","",NA,NA,"",NA,1.04271684299965,"f",36,NA,"inlab","MacIntel",NA,NA,NA
"146",27754,1,0,0,666,"repeat","number","numRpt","","noRew","triangle",139,"W",0,"","",NA,NA,"",NA,0.73295788500036,"d",37,NA,"inlab","MacIntel",NA,NA,NA
"147",27754,1,0,0,666,"switch","letter","lettSwt","","noRew","triangle",167,"S",0,"","",NA,NA,"",NA,1.32408958499946,"k",38,NA,"inlab","MacIntel",NA,NA,NA
"148",27754,1,0,0,666,"repeat","letter","lettRpt","","noRew","circle",181,"D",0,"","",NA,NA,"",NA,0.874225001000013,"j",39,NA,"inlab","MacIntel",NA,NA,NA
"149",27754,1,0,0,666,"switch","number","numSwt","","noRew","hexagon",167,"W",0,"","",NA,NA,"",NA,0.764487895001366,"f",40,NA,"inlab","MacIntel",NA,NA,NA
"150",27754,1,0,0,666,"repeat","number","numRpt","","noRew","circle",181,"S",0,"","",NA,NA,"",NA,1.9931616319991,"f",41,NA,"inlab","MacIntel",NA,NA,NA
"151",27754,1,0,0,666,"switch","letter","lettSwt","","noRew","hexagon",146,"B",0,"","",NA,NA,"",NA,0.95792680500017,"j",42,NA,"inlab","MacIntel",NA,NA,NA
"152",27754,1,0,0,666,"repeat","letter","lettRpt","","noRew","triangle",174,"U",0,"","",NA,NA,"",NA,0.747607337001682,"k",43,NA,"inlab","MacIntel",NA,NA,NA
"153",27754,1,0,0,666,"repeat","letter","lettRpt","","noRew","circle",146,"U",0,"","",NA,NA,"",NA,1.64209593099804,"k",44,NA,"inlab","MacIntel",NA,NA,NA
"154",27754,1,0,0,666,"switch","number","numSwt","","noRew","hexagon",125,"D",0,"","",NA,NA,"",NA,1.60353984799804,"d",45,NA,"inlab","MacIntel",NA,NA,NA
"155",27754,1,0,0,666,"repeat","number","numRpt","","noRew","triangle",181,"Y",0,"","",NA,NA,"",NA,0.840028881997569,"f",46,NA,"inlab","MacIntel",NA,NA,NA
"156",27754,1,0,0,666,"switch","letter","lettSwt","","noRew","hexagon",174,"F",0,"","",NA,NA,"",NA,2.8333458699999,"j",47,NA,"inlab","MacIntel",NA,NA,NA
"157",27754,1,0,0,666,"repeat","letter","lettRpt","","noRew","circle",125,"D",0,"","",NA,NA,"",NA,1.12427152199962,"j",48,NA,"inlab","MacIntel",NA,NA,NA
"158",27754,1,0,0,666,"switch","number","numSwt","","noRew","hexagon",132,"B",0,"","",NA,NA,"",NA,1.89930577699852,"d",49,NA,"inlab","MacIntel",NA,NA,NA
"159",27754,1,0,0,666,"repeat","number","numRpt","","noRew","circle",174,"W",0,"","",NA,NA,"",NA,1.25988714499908,"f",50,NA,"inlab","MacIntel",NA,NA,NA
"160",27754,1,0,0,666,"switch","letter","lettSwt","","noRew","hexagon",167,"H",0,"","",NA,NA,"",NA,0.923574875996564,"j",51,NA,"inlab","MacIntel",NA,NA,NA
"161",27754,1,0,0,666,"repeat","letter","lettRpt","","noRew","hexagon",132,"Y",0,"","",NA,NA,"",NA,1.09785655700034,"k",52,NA,"inlab","MacIntel",NA,NA,NA
"162",27754,1,0,0,666,"repeat","letter","lettRpt","","noRew","star",146,"W",0,"","",NA,NA,"",NA,0.810312019999401,"k",53,NA,"inlab","MacIntel",NA,NA,NA
"163",27754,1,0,0,666,"switch","number","numSwt","","noRew","hexagon",125,"U",0,"","",NA,NA,"",NA,1.44027106399881,"d",54,NA,"inlab","MacIntel",NA,NA,NA
"164",27754,1,0,0,666,"switch","letter","lettSwt","","noRew","circle",160,"S",0,"","",NA,NA,"",NA,2.29771035499652,"k",55,NA,"inlab","MacIntel",NA,NA,NA
"165",27754,1,0,0,666,"switch","number","numSwt","","noRew","circle",125,"B",0,"","",NA,NA,"",NA,0.78406972099765,"d",56,NA,"inlab","MacIntel",NA,NA,NA
"166",27754,1,0,0,666,"repeat","number","numRpt","","noRew","triangle",181,"Y",0,"","",NA,NA,"",NA,0.645296612998209,"f",57,NA,"inlab","MacIntel",NA,NA,NA
"167",27754,1,0,0,666,"repeat","number","numRpt","","noRew","star",132,"H",0,"","",NA,NA,"",NA,1.33572180699775,"d",58,NA,"inlab","MacIntel",NA,NA,NA
"168",27754,1,0,0,666,"repeat","number","numRpt","","noRew","triangle",160,"S",0,"","",NA,NA,"",NA,1.01369530699958,"f",59,NA,"inlab","MacIntel",NA,NA,NA
"169",27754,1,0,0,666,"repeat","number","numRpt","","noRew","triangle",167,"B",0,"","",NA,NA,"",NA,1.0729930239977,"f",60,NA,"inlab","MacIntel",NA,NA,NA
"170",27754,1,0,0,666,"switch","letter","lettSwt","","noRew","hexagon",146,"S",0,"","",NA,NA,"",NA,1.96286867500021,"k",61,NA,"inlab","MacIntel",NA,NA,NA
"171",27754,1,0,0,666,"repeat","letter","lettRpt","","noRew","star",181,"Y",0,"","",NA,NA,"",NA,0.807893077999324,"k",62,NA,"inlab","MacIntel",NA,NA,NA
"172",27754,1,0,0,666,"switch","number","numSwt","","noRew","hexagon",174,"H",0,"","",NA,NA,"",NA,0.834618045999378,"f",63,NA,"inlab","MacIntel",NA,NA,NA
"173",27754,1,0,0,666,"repeat","number","numRpt","high","noRew","hexagon",132,"F",0,"","",NA,NA,"",NA,0.97112988599838,"d",NA,0,"inlab","MacIntel",NA,NA,NA
"174",27754,1,0,1,667,"repeat","number","numRpt","high","noRew","circle",167,"B",0,"","",NA,NA,"",NA,0.57710108199899,"f",NA,1,"inlab","MacIntel",NA,NA,NA
"175",27754,1,0,10,677,"repeat","number","numRpt","high","noRew","hexagon",146,"W",0,"","",NA,NA,"",NA,0.621516350998718,"d",NA,2,"inlab","MacIntel",NA,NA,NA
"176",27754,1,0,1,678,"switch","letter","lettSwt","high","noRew","circle",139,"S",0,"","",NA,NA,"",NA,0.522858462998556,"k",NA,3,"inlab","MacIntel",NA,NA,NA
"177",27754,1,0,10,688,"repeat","letter","lettRpt","high","noRew","hexagon",160,"U",0,"","",NA,NA,"",NA,0.465889338000125,"k",NA,4,"inlab","MacIntel",NA,NA,NA
"178",27754,1,0,1,689,"switch","number","numSwt","high","noRew","circle",125,"D",0,"","",NA,NA,"",NA,0.716444161000254,"d",NA,5,"inlab","MacIntel",NA,NA,NA
"179",27754,1,0,1,690,"switch","letter","lettSwt","high","noRew","circle",174,"Y",0,"","",NA,NA,"",NA,0.675334884999756,"k",NA,6,"inlab","MacIntel",NA,NA,NA
"180",27754,1,0,10,700,"switch","number","numSwt","high","noRew","hexagon",181,"H",0,"","",NA,NA,"",NA,0.60478281199903,"f",NA,7,"inlab","MacIntel",NA,NA,NA
"181",27754,1,0,10,710,"repeat","number","numRpt","high","noRew","hexagon",132,"F",0,"","",NA,NA,"",NA,0.680513903000247,"d",NA,8,"inlab","MacIntel",NA,NA,NA
"182",27754,1,0,1,711,"switch","letter","lettSwt","high","noRew","circle",167,"B",0,"","",NA,NA,"",NA,0.657663953999872,"j",NA,9,"inlab","MacIntel",NA,NA,NA
"183",27754,1,0,1,712,"switch","number","numSwt","high","noRew","hexagon",146,"W",0,"","",NA,NA,"",NA,0.651608457999828,"d",NA,10,"inlab","MacIntel",NA,NA,NA
"184",27754,1,0,1,713,"switch","letter","lettSwt","high","noRew","circle",139,"S",0,"","",NA,NA,"",NA,0.892372739996063,"k",NA,11,"inlab","MacIntel",NA,NA,NA
"185",27754,1,0,1,714,"repeat","letter","lettRpt","high","noRew","circle",160,"U",0,"","",NA,NA,"",NA,0.677286264995928,"k",NA,12,"inlab","MacIntel",NA,NA,NA
"186",27754,1,0,10,724,"repeat","letter","lettRpt","high","noRew","hexagon",125,"D",0,"","",NA,NA,"",NA,0.654229338000732,"j",NA,13,"inlab","MacIntel",NA,NA,NA
"187",27754,1,0,1,725,"switch","number","numSwt","high","noRew","circle",174,"Y",0,"","",NA,NA,"",NA,1.46395989699886,"f",NA,14,"inlab","MacIntel",NA,NA,NA
"188",27754,1,0,1,726,"switch","letter","lettSwt","high","noRew","hexagon",181,"H",0,"","",NA,NA,"",NA,0.729431917996408,"j",NA,15,"inlab","MacIntel",NA,NA,NA
"189",27754,1,0,1,727,"switch","number","numSwt","high","noRew","circle",139,"D",0,"","",NA,NA,"",NA,0.55323559700264,"d",NA,16,"inlab","MacIntel",NA,NA,NA
"190",27754,1,0,0,727,"repeat","number","numRpt","high","noRew","hexagon",146,"B",0,"","",NA,NA,"",NA,0.830382036998344,"d",NA,17,"inlab","MacIntel",NA,NA,NA
"191",27754,1,0,10,737,"repeat","number","numRpt","high","noRew","circle",160,"F",0,"","",NA,NA,"",NA,0.889752751001652,"f",NA,18,"inlab","MacIntel",NA,NA,NA
"192",27754,1,0,0,737,"repeat","number","numRpt","high","noRew","hexagon",167,"H",0,"","",NA,NA,"",NA,0.833923810998385,"f",NA,19,"inlab","MacIntel",NA,NA,NA
"193",27754,1,0,1,738,"repeat","number","numRpt","high","noRew","hexagon",174,"S",0,"","",NA,NA,"",NA,0.707177659998706,"f",NA,20,"inlab","MacIntel",NA,NA,NA
"194",27754,1,0,1,739,"repeat","number","numRpt","high","noRew","circle",181,"W",0,"","",NA,NA,"",NA,0.436689220001426,"f",NA,21,"inlab","MacIntel",NA,NA,NA
"195",27754,1,0,1,740,"switch","letter","lettSwt","high","noRew","circle",132,"U",0,"","",NA,NA,"",NA,0.584064166996541,"k",NA,22,"inlab","MacIntel",NA,NA,NA
"196",27754,1,0,10,750,"repeat","letter","lettRpt","high","noRew","hexagon",125,"Y",0,"","",NA,NA,"",NA,0.726519625000947,"k",NA,23,"inlab","MacIntel",NA,NA,NA
"197",27754,1,0,10,760,"repeat","letter","lettRpt","high","noRew","circle",139,"F",0,"","",NA,NA,"",NA,0.676427430997137,"j",NA,24,"inlab","MacIntel",NA,NA,NA
"198",27754,1,0,1,761,"repeat","letter","lettRpt","high","noRew","hexagon",125,"B",0,"","",NA,NA,"",NA,0.677018894995854,"j",NA,25,"inlab","MacIntel",NA,NA,NA
"199",27754,1,0,10,771,"switch","number","numSwt","high","noRew","hexagon",167,"U",0,"","",NA,NA,"",NA,0.67885086699971,"f",NA,26,"inlab","MacIntel",NA,NA,NA
"200",27754,1,0,1,772,"repeat","number","numRpt","high","noRew","circle",146,"Y",0,"","",NA,NA,"",NA,0.968176123999001,"d",NA,27,"inlab","MacIntel",NA,NA,NA
"201",27754,1,0,1,773,"switch","letter","lettSwt","high","noRew","circle",132,"D",0,"","",NA,NA,"",NA,0.525710294998134,"j",NA,28,"inlab","MacIntel",NA,NA,NA
"202",27754,0,0,0,773,"repeat","letter",NA,"high","noRew","hexagon",181,"H",0,"","",NA,NA,"",NA,0.868389739996928,"k",NA,29,"inlab","MacIntel",NA,NA,NA
"203",27754,1,1,1,774,"switch","number","numSwt","high","noRew","circle",160,"W",0,"","",NA,NA,"",NA,0.812867722997907,"f",NA,30,"inlab","MacIntel",NA,NA,NA
"204",27754,1,0,10,784,"repeat","number","numRpt","high","noRew","hexagon",174,"S",0,"","",NA,NA,"",NA,0.543987359000312,"f",NA,31,"inlab","MacIntel",NA,NA,NA
"205",27754,1,0,0,784,"repeat","number","numRpt","high","noRew","hexagon",181,"D",1,"","",NA,NA,"",NA,0.669090944000345,"f",NA,0,"inlab","MacIntel",NA,NA,NA
"206",27754,1,0,1,785,"repeat","number","numRpt","high","noRew","circle",174,"S",1,"","",NA,NA,"",NA,0.5830358480016,"f",NA,1,"inlab","MacIntel",NA,NA,NA
"207",27754,1,0,0,785,"switch","letter","lettSwt","high","noRew","hexagon",160,"W",1,"","",NA,NA,"",NA,0.63499957699969,"k",NA,2,"inlab","MacIntel",NA,NA,NA
"208",27754,1,0,1,786,"repeat","letter","lettRpt","high","noRew","circle",167,"Y",1,"","",NA,NA,"",NA,0.445335196000087,"k",NA,3,"inlab","MacIntel",NA,NA,NA
"209",27754,1,0,0,786,"repeat","letter","lettRpt","high","noRew","hexagon",132,"U",1,"","",NA,NA,"",NA,0.673528023002291,"k",NA,4,"inlab","MacIntel",NA,NA,NA
"210",27754,0,0,0,786,"repeat","letter",NA,"high","noRew","circle",125,"F",1,"","",NA,NA,"",NA,0.33051105100094,"k",NA,5,"inlab","MacIntel",NA,NA,NA
"211",27754,1,1,10,796,"repeat","letter","lettRpt","high","noRew","hexagon",139,"B",1,"","",NA,NA,"",NA,0.513551677002397,"j",NA,6,"inlab","MacIntel",NA,NA,NA
"212",27754,0,0,0,796,"repeat","letter",NA,"high","noRew","circle",146,"H",1,"","",NA,NA,"",NA,0.570040411999798,"k",NA,7,"inlab","MacIntel",NA,NA,NA
"213",27754,1,1,10,806,"repeat","letter","lettRpt","high","noRew","hexagon",181,"D",1,"","",NA,NA,"",NA,0.478484306997416,"j",NA,8,"inlab","MacIntel",NA,NA,NA
"214",27754,1,0,1,807,"switch","number","numSwt","high","noRew","circle",174,"S",1,"","",NA,NA,"",NA,0.640626962998795,"f",NA,9,"inlab","MacIntel",NA,NA,NA
"215",27754,1,0,1,808,"repeat","number","numRpt","high","noRew","circle",160,"W",1,"","",NA,NA,"",NA,0.530286374996649,"f",NA,10,"inlab","MacIntel",NA,NA,NA
"216",27754,1,0,0,808,"switch","letter","lettSwt","high","noRew","hexagon",167,"Y",1,"","",NA,NA,"",NA,0.633238645998063,"k",NA,11,"inlab","MacIntel",NA,NA,NA
"217",27754,1,0,10,818,"repeat","letter","lettRpt","high","noRew","hexagon",132,"U",1,"","",NA,NA,"",NA,0.468581021999853,"k",NA,12,"inlab","MacIntel",NA,NA,NA
"218",27754,1,0,1,819,"repeat","letter","lettRpt","high","noRew","circle",125,"F",1,"","",NA,NA,"",NA,0.477007976998721,"j",NA,13,"inlab","MacIntel",NA,NA,NA
"219",27754,1,0,10,829,"switch","number","numSwt","high","noRew","circle",139,"B",1,"","",NA,NA,"",NA,0.495617767996009,"d",NA,14,"inlab","MacIntel",NA,NA,NA
"220",27754,1,0,10,839,"repeat","number","numRpt","high","noRew","hexagon",146,"H",1,"","",NA,NA,"",NA,0.600338538999495,"d",NA,15,"inlab","MacIntel",NA,NA,NA
"221",27754,1,0,10,849,"repeat","number","numRpt","high","noRew","hexagon",181,"F",1,"","",NA,NA,"",NA,0.390127485996345,"f",NA,16,"inlab","MacIntel",NA,NA,NA
"222",27754,1,0,1,850,"repeat","number","numRpt","high","noRew","circle",132,"S",1,"","",NA,NA,"",NA,0.385702937001042,"d",NA,17,"inlab","MacIntel",NA,NA,NA
"223",27754,1,0,1,851,"switch","letter","lettSwt","high","noRew","circle",125,"H",1,"","",NA,NA,"",NA,0.431083179999405,"j",NA,18,"inlab","MacIntel",NA,NA,NA
"224",27754,1,0,10,861,"repeat","letter","lettRpt","high","noRew","hexagon",139,"Y",1,"","",NA,NA,"",NA,0.52190210399931,"k",NA,19,"inlab","MacIntel",NA,NA,NA
"225",27754,1,0,1,862,"repeat","letter","lettRpt","high","noRew","circle",160,"W",1,"","",NA,NA,"",NA,0.585025831998791,"k",NA,20,"inlab","MacIntel",NA,NA,NA
"226",27754,1,0,10,872,"repeat","letter","lettRpt","high","noRew","hexagon",167,"U",1,"","",NA,NA,"",NA,0.388481376998243,"k",NA,21,"inlab","MacIntel",NA,NA,NA
"227",27754,1,0,10,882,"switch","number","numSwt","high","noRew","hexagon",146,"B",1,"","",NA,NA,"",NA,0.457886350999615,"d",NA,22,"inlab","MacIntel",NA,NA,NA
"228",27754,1,0,1,883,"repeat","number","numRpt","high","noRew","circle",174,"D",1,"","",NA,NA,"",NA,0.47579426199809,"f",NA,23,"inlab","MacIntel",NA,NA,NA
"229",27754,1,0,10,893,"switch","letter","lettSwt","high","noRew","hexagon",132,"S",1,"","",NA,NA,"",NA,0.54815007399884,"k",NA,24,"inlab","MacIntel",NA,NA,NA
"230",27754,1,0,1,894,"repeat","letter","lettRpt","high","noRew","circle",125,"D",1,"","",NA,NA,"",NA,0.612954102998629,"j",NA,25,"inlab","MacIntel",NA,NA,NA
"231",27754,1,0,10,904,"switch","number","numSwt","high","noRew","hexagon",160,"F",1,"","",NA,NA,"",NA,0.512330225999904,"f",NA,26,"inlab","MacIntel",NA,NA,NA
"232",27754,1,0,10,914,"repeat","number","numRpt","high","noRew","circle",146,"W",1,"","",NA,NA,"",NA,0.432992268000817,"d",NA,27,"inlab","MacIntel",NA,NA,NA
"233",27754,1,0,1,915,"repeat","number","numRpt","high","noRew","circle",174,"B",1,"","",NA,NA,"",NA,0.572014795001451,"f",NA,28,"inlab","MacIntel",NA,NA,NA
"234",27754,0,0,0,915,"repeat","number",NA,"high","noRew","hexagon",167,"H",1,"","",NA,NA,"",NA,0.409596418001456,"d",NA,29,"inlab","MacIntel",NA,NA,NA
"235",27754,1,1,0,915,"repeat","number","numRpt","high","noRew","hexagon",139,"U",1,"","",NA,NA,"",NA,0.733400351997261,"d",NA,30,"inlab","MacIntel",NA,NA,NA
"236",27754,1,0,1,916,"repeat","number","numRpt","high","noRew","circle",181,"Y",1,"","",NA,NA,"",NA,0.540237427001557,"f",NA,31,"inlab","MacIntel",NA,NA,NA
"237",27754,1,0,1,917,"repeat","number","numRpt","low","noRew","star",146,"D",2,"","",NA,NA,"",NA,0.698265163999167,"d",NA,0,"inlab","MacIntel",NA,NA,NA
"238",27754,1,0,10,927,"switch","letter","lettSwt","low","noRew","triangle",132,"S",2,"","",NA,NA,"",NA,0.545982052997715,"k",NA,1,"inlab","MacIntel",NA,NA,NA
"239",27754,1,0,1,928,"repeat","letter","lettRpt","low","noRew","star",125,"B",2,"","",NA,NA,"",NA,0.426710528001422,"j",NA,2,"inlab","MacIntel",NA,NA,NA
"240",27754,1,0,0,928,"repeat","letter","lettRpt","low","noRew","triangle",139,"U",2,"","",NA,NA,"",NA,0.532438858001115,"k",NA,3,"inlab","MacIntel",NA,NA,NA
"241",27754,1,0,10,938,"switch","number","numSwt","low","noRew","triangle",167,"W",2,"","",NA,NA,"",NA,0.467044468001404,"f",NA,4,"inlab","MacIntel",NA,NA,NA
"242",27754,1,0,10,948,"repeat","number","numRpt","low","noRew","star",174,"H",2,"","",NA,NA,"",NA,0.420199181000498,"f",NA,5,"inlab","MacIntel",NA,NA,NA
"243",27754,1,0,1,949,"repeat","number","numRpt","low","noRew","star",181,"Y",2,"","",NA,NA,"",NA,0.351146860997687,"f",NA,6,"inlab","MacIntel",NA,NA,NA
"244",27754,1,0,1,950,"repeat","number","numRpt","low","noRew","triangle",160,"F",2,"","",NA,NA,"",NA,0.365625758997339,"f",NA,7,"inlab","MacIntel",NA,NA,NA
"245",27754,1,0,1,951,"repeat","number","numRpt","low","noRew","star",146,"D",2,"","",NA,NA,"",NA,0.604784932002076,"d",NA,8,"inlab","MacIntel",NA,NA,NA
"246",27754,0,0,0,951,"switch","letter",NA,"low","noRew","triangle",132,"S",2,"","",NA,NA,"",NA,0.593211200000951,"j",NA,9,"inlab","MacIntel",NA,NA,NA
"247",27754,1,1,1,952,"repeat","letter","lettRpt","low","noRew","star",125,"B",2,"","",NA,NA,"",NA,0.56566614699841,"j",NA,10,"inlab","MacIntel",NA,NA,NA
"248",27754,1,0,0,952,"repeat","letter","lettRpt","low","noRew","triangle",139,"U",2,"","",NA,NA,"",NA,0.667288716998883,"k",NA,11,"inlab","MacIntel",NA,NA,NA
"249",27754,1,0,1,953,"switch","number","numSwt","low","noRew","star",167,"W",2,"","",NA,NA,"",NA,0.492715196996869,"f",NA,12,"inlab","MacIntel",NA,NA,NA
"250",27754,1,0,0,953,"repeat","number","numRpt","low","noRew","triangle",174,"H",2,"","",NA,NA,"",NA,0.492906873998436,"f",NA,13,"inlab","MacIntel",NA,NA,NA
"251",27754,1,0,1,954,"switch","letter","lettSwt","low","noRew","star",181,"Y",2,"","",NA,NA,"",NA,0.438442940001551,"k",NA,14,"inlab","MacIntel",NA,NA,NA
"252",27754,1,0,1,955,"repeat","letter","lettRpt","low","noRew","triangle",160,"F",2,"","",NA,NA,"",NA,0.392429455998354,"j",NA,15,"inlab","MacIntel",NA,NA,NA
"253",27754,1,0,1,956,"repeat","letter","lettRpt","low","noRew","star",132,"W",2,"","",NA,NA,"",NA,0.325157358001888,"k",NA,16,"inlab","MacIntel",NA,NA,NA
"254",27754,0,0,0,956,"repeat","letter",NA,"low","noRew","triangle",181,"F",2,"","",NA,NA,"",NA,0.469157511000958,"k",NA,17,"inlab","MacIntel",NA,NA,NA
"255",27754,1,1,10,966,"switch","number","numSwt","low","noRew","star",174,"S",2,"","",NA,NA,"",NA,0.519944071998907,"f",NA,18,"inlab","MacIntel",NA,NA,NA
"256",27754,1,0,10,976,"repeat","number","numRpt","low","noRew","triangle",167,"H",2,"","",NA,NA,"",NA,0.430900298000779,"f",NA,19,"inlab","MacIntel",NA,NA,NA
"257",27754,0,0,0,976,"repeat","number",NA,"low","noRew","triangle",139,"D",2,"","",NA,NA,"",NA,0.425645064999117,"f",NA,20,"inlab","MacIntel",NA,NA,NA
"258",27754,1,1,10,986,"repeat","number","numRpt","low","noRew","star",125,"B",2,"","",NA,NA,"",NA,0.580586549996951,"d",NA,21,"inlab","MacIntel",NA,NA,NA
"259",27754,1,0,10,996,"repeat","number","numRpt","low","noRew","star",160,"Y",2,"","",NA,NA,"",NA,0.546539338000002,"f",NA,22,"inlab","MacIntel",NA,NA,NA
"260",27754,1,0,0,996,"repeat","number","numRpt","low","noRew","triangle",146,"U",2,"","",NA,NA,"",NA,0.553528874996118,"d",NA,23,"inlab","MacIntel",NA,NA,NA
"261",27754,1,0,0,996,"repeat","number","numRpt","low","noRew","triangle",132,"F",2,"","",NA,NA,"",NA,0.598982231000264,"d",NA,24,"inlab","MacIntel",NA,NA,NA
"262",27754,1,0,1,997,"repeat","number","numRpt","low","noRew","star",160,"B",2,"","",NA,NA,"",NA,0.627395584000624,"f",NA,25,"inlab","MacIntel",NA,NA,NA
"263",27754,1,0,10,1007,"switch","letter","lettSwt","low","noRew","star",125,"H",2,"","",NA,NA,"",NA,0.510750296998594,"j",NA,26,"inlab","MacIntel",NA,NA,NA
"264",27754,1,0,0,1007,"repeat","letter","lettRpt","low","noRew","triangle",139,"Y",2,"","",NA,NA,"",NA,0.59044702599931,"k",NA,27,"inlab","MacIntel",NA,NA,NA
"265",27754,1,0,1,1008,"repeat","letter","lettRpt","low","noRew","star",174,"W",2,"","",NA,NA,"",NA,0.490489268999227,"k",NA,28,"inlab","MacIntel",NA,NA,NA
"266",27754,1,0,0,1008,"repeat","letter","lettRpt","low","noRew","triangle",146,"S",2,"","",NA,NA,"",NA,0.573616270998173,"k",NA,29,"inlab","MacIntel",NA,NA,NA
"267",27754,1,0,0,1008,"switch","number","numSwt","low","noRew","triangle",181,"U",2,"","",NA,NA,"",NA,0.666142443998979,"f",NA,30,"inlab","MacIntel",NA,NA,NA
"268",27754,1,0,1,1009,"repeat","number","numRpt","low","noRew","star",167,"D",2,"","",NA,NA,"",NA,0.596306318002462,"f",NA,31,"inlab","MacIntel",NA,NA,NA
"269",27754,1,0,10,1019,"switch","letter","lettSwt","low","noRew","star",160,"B",3,"","",NA,NA,"",NA,0.828198233997682,"j",NA,0,"inlab","MacIntel",NA,NA,NA
"270",27754,1,0,10,1029,"repeat","letter","lettRpt","low","noRew","triangle",146,"Y",3,"","",NA,NA,"",NA,0.423066471998027,"k",NA,1,"inlab","MacIntel",NA,NA,NA
"271",27754,1,0,1,1030,"switch","number","numSwt","low","noRew","triangle",132,"U",3,"","",NA,NA,"",NA,0.435013550999429,"d",NA,2,"inlab","MacIntel",NA,NA,NA
"272",27754,1,0,1,1031,"repeat","number","numRpt","low","noRew","star",181,"F",3,"","",NA,NA,"",NA,0.396249484998407,"f",NA,3,"inlab","MacIntel",NA,NA,NA
"273",27754,1,0,0,1031,"repeat","number","numRpt","low","noRew","triangle",167,"S",3,"","",NA,NA,"",NA,0.601305625998066,"f",NA,4,"inlab","MacIntel",NA,NA,NA
"274",27754,1,0,1,1032,"repeat","number","numRpt","low","noRew","star",174,"D",3,"","",NA,NA,"",NA,0.429203690000577,"f",NA,5,"inlab","MacIntel",NA,NA,NA
"275",27754,1,0,0,1032,"repeat","number","numRpt","low","noRew","triangle",139,"H",3,"","",NA,NA,"",NA,0.540172387001803,"d",NA,6,"inlab","MacIntel",NA,NA,NA
"276",27754,1,0,1,1033,"switch","letter","lettSwt","low","noRew","star",125,"W",3,"","",NA,NA,"",NA,0.64114601899928,"k",NA,7,"inlab","MacIntel",NA,NA,NA
"277",27754,1,0,0,1033,"repeat","letter","lettRpt","low","noRew","triangle",160,"B",3,"","",NA,NA,"",NA,0.483129486998223,"j",NA,8,"inlab","MacIntel",NA,NA,NA
"278",27754,1,0,10,1043,"repeat","letter","lettRpt","low","noRew","star",146,"Y",3,"","",NA,NA,"",NA,0.612021392000315,"k",NA,9,"inlab","MacIntel",NA,NA,NA
"279",27754,1,0,10,1053,"switch","number","numSwt","low","noRew","triangle",132,"U",3,"","",NA,NA,"",NA,0.480063286999211,"d",NA,10,"inlab","MacIntel",NA,NA,NA
"280",27754,0,0,0,1053,"switch","letter",NA,"low","noRew","star",181,"F",3,"","",NA,NA,"",NA,0.393026388999715,"k",NA,11,"inlab","MacIntel",NA,NA,NA
"281",27754,1,1,10,1063,"repeat","letter","lettRpt","low","noRew","star",167,"S",3,"","",NA,NA,"",NA,0.64560355499998,"k",NA,12,"inlab","MacIntel",NA,NA,NA
"282",27754,1,0,0,1063,"switch","number","numSwt","low","noRew","triangle",174,"D",3,"","",NA,NA,"",NA,0.648179495998193,"f",NA,13,"inlab","MacIntel",NA,NA,NA
"283",27754,1,0,0,1063,"repeat","number","numRpt","low","noRew","triangle",139,"H",3,"","",NA,NA,"",NA,0.515140603998589,"d",NA,14,"inlab","MacIntel",NA,NA,NA
"284",27754,1,0,1,1064,"repeat","number","numRpt","low","noRew","star",125,"W",3,"","",NA,NA,"",NA,0.570998667997628,"d",NA,15,"inlab","MacIntel",NA,NA,NA
"285",27754,1,0,0,1064,"repeat","number","numRpt","low","noRew","triangle",167,"H",3,"","",NA,NA,"",NA,0.552171122002619,"f",NA,16,"inlab","MacIntel",NA,NA,NA
"286",27754,1,0,1,1065,"switch","letter","lettSwt","low","noRew","star",125,"D",3,"","",NA,NA,"",NA,0.805509393001557,"j",NA,17,"inlab","MacIntel",NA,NA,NA
"287",27754,1,0,10,1075,"repeat","letter","lettRpt","low","noRew","star",146,"W",3,"","",NA,NA,"",NA,0.762958759998583,"k",NA,18,"inlab","MacIntel",NA,NA,NA
"288",27754,1,0,0,1075,"repeat","letter","lettRpt","low","noRew","triangle",160,"F",3,"","",NA,NA,"",NA,0.578647162001289,"j",NA,19,"inlab","MacIntel",NA,NA,NA
"289",27754,1,0,10,1085,"switch","number","numSwt","low","noRew","star",132,"U",3,"","",NA,NA,"",NA,0.581585293999524,"d",NA,20,"inlab","MacIntel",NA,NA,NA
"290",27754,1,0,0,1085,"repeat","number","numRpt","low","noRew","triangle",181,"B",3,"","",NA,NA,"",NA,0.499150838997593,"f",NA,21,"inlab","MacIntel",NA,NA,NA
"291",27754,1,0,0,1085,"repeat","number","numRpt","low","noRew","triangle",174,"S",3,"","",NA,NA,"",NA,0.515453184001672,"f",NA,22,"inlab","MacIntel",NA,NA,NA
"292",27754,1,0,1,1086,"repeat","number","numRpt","low","noRew","star",139,"Y",3,"","",NA,NA,"",NA,0.42763333199764,"d",NA,23,"inlab","MacIntel",NA,NA,NA
"293",27754,1,0,1,1087,"repeat","number","numRpt","low","noRew","triangle",132,"F",3,"","",NA,NA,"",NA,0.431513654999435,"d",NA,24,"inlab","MacIntel",NA,NA,NA
"294",27754,0,0,0,1087,"repeat","number",NA,"low","noRew","star",125,"S",3,"","",NA,NA,"",NA,0.522065696000936,"f",NA,25,"inlab","MacIntel",NA,NA,NA
"295",27754,0,1,0,1087,"switch","letter",NA,"low","noRew","star",146,"U",3,"","",NA,NA,"",NA,0.825874919999478,"j",NA,26,"inlab","MacIntel",NA,NA,NA
"296",27754,1,1,0,1087,"repeat","letter","lettRpt","low","noRew","triangle",160,"W",3,"","",NA,NA,"",NA,0.556526200998633,"k",NA,27,"inlab","MacIntel",NA,NA,NA
"297",27754,1,0,10,1097,"repeat","letter","lettRpt","low","noRew","triangle",167,"B",3,"","",NA,NA,"",NA,0.460073766000278,"j",NA,28,"inlab","MacIntel",NA,NA,NA
"298",27754,1,0,1,1098,"repeat","letter","lettRpt","low","noRew","star",139,"D",3,"","",NA,NA,"",NA,0.627738957002293,"j",NA,29,"inlab","MacIntel",NA,NA,NA
"299",27754,1,0,10,1108,"repeat","letter","lettRpt","low","noRew","star",174,"Y",3,"","",NA,NA,"",NA,0.497311244998855,"k",NA,30,"inlab","MacIntel",NA,NA,NA
"300",27754,1,0,10,1118,"switch","number","numSwt","low","noRew","triangle",181,"H",3,"","",NA,NA,"",NA,0.458060763998219,"f",NA,31,"inlab","MacIntel",NA,NA,NA
"301",27754,1,0,1,1119,"repeat","number","numRpt","high","noRew","circle",160,"W",4,"","",NA,NA,"",NA,0.540907843998866,"f",NA,0,"inlab","MacIntel",NA,NA,NA
"302",27754,1,0,0,1119,"repeat","number","numRpt","high","noRew","hexagon",139,"B",4,"","",NA,NA,"",NA,0.571845690999908,"d",NA,1,"inlab","MacIntel",NA,NA,NA
"303",27754,1,0,10,1129,"repeat","number","numRpt","high","noRew","hexagon",181,"S",4,"","",NA,NA,"",NA,0.425483322997025,"f",NA,2,"inlab","MacIntel",NA,NA,NA
"304",27754,1,0,1,1130,"repeat","number","numRpt","high","noRew","circle",167,"H",4,"","",NA,NA,"",NA,0.540436513998429,"f",NA,3,"inlab","MacIntel",NA,NA,NA
"305",27754,1,0,10,1140,"switch","letter","lettSwt","high","noRew","circle",132,"F",4,"","",NA,NA,"",NA,0.530611172998761,"j",NA,4,"inlab","MacIntel",NA,NA,NA
"306",27754,0,0,0,1140,"repeat","letter",NA,"high","noRew","hexagon",146,"U",4,"","",NA,NA,"",NA,0.401580075998936,"j",NA,5,"inlab","MacIntel",NA,NA,NA
"307",27754,1,1,10,1150,"repeat","letter","lettRpt","high","noRew","hexagon",125,"Y",4,"","",NA,NA,"",NA,0.454588887998398,"k",NA,6,"inlab","MacIntel",NA,NA,NA
"308",27754,1,0,10,1160,"repeat","letter","lettRpt","high","noRew","circle",174,"D",4,"","",NA,NA,"",NA,0.496067194999341,"j",NA,7,"inlab","MacIntel",NA,NA,NA
"309",27754,1,0,1,1161,"repeat","letter","lettRpt","high","noRew","circle",160,"W",4,"","",NA,NA,"",NA,0.456416036999144,"k",NA,8,"inlab","MacIntel",NA,NA,NA
"310",27754,1,0,1,1162,"switch","number","numSwt","high","noRew","hexagon",139,"B",4,"","",NA,NA,"",NA,0.426393026998994,"d",NA,9,"inlab","MacIntel",NA,NA,NA
"311",27754,1,0,1,1163,"repeat","number","numRpt","high","noRew","circle",181,"S",4,"","",NA,NA,"",NA,0.456497857998329,"f",NA,10,"inlab","MacIntel",NA,NA,NA
"312",27754,1,0,0,1163,"repeat","number","numRpt","high","noRew","hexagon",167,"H",4,"","",NA,NA,"",NA,0.465778559002501,"f",NA,11,"inlab","MacIntel",NA,NA,NA
"313",27754,1,0,0,1163,"switch","letter","lettSwt","high","noRew","hexagon",132,"F",4,"","",NA,NA,"",NA,0.779135502998543,"j",NA,12,"inlab","MacIntel",NA,NA,NA
"314",27754,1,0,1,1164,"repeat","letter","lettRpt","high","noRew","circle",146,"U",4,"","",NA,NA,"",NA,0.583888196997577,"k",NA,13,"inlab","MacIntel",NA,NA,NA
"315",27754,1,0,10,1174,"repeat","letter","lettRpt","high","noRew","circle",125,"Y",4,"","",NA,NA,"",NA,0.605299548999028,"k",NA,14,"inlab","MacIntel",NA,NA,NA
"316",27754,1,0,0,1174,"repeat","letter","lettRpt","high","noRew","hexagon",174,"D",4,"","",NA,NA,"",NA,0.560218855996936,"j",NA,15,"inlab","MacIntel",NA,NA,NA
"317",27754,1,0,0,1174,"repeat","letter","lettRpt","high","noRew","hexagon",160,"W",4,"","",NA,NA,"",NA,0.526650972002244,"k",NA,16,"inlab","MacIntel",NA,NA,NA
"318",27754,1,0,1,1175,"repeat","letter","lettRpt","high","noRew","circle",167,"B",4,"","",NA,NA,"",NA,0.541463787998509,"j",NA,17,"inlab","MacIntel",NA,NA,NA
"319",27754,1,0,1,1176,"repeat","letter","lettRpt","high","noRew","circle",139,"Y",4,"","",NA,NA,"",NA,1.22854166400066,"k",NA,18,"inlab","MacIntel",NA,NA,NA
"320",27754,1,0,0,1176,"switch","number","numSwt","high","noRew","hexagon",132,"D",4,"","",NA,NA,"",NA,0.68667602700225,"d",NA,19,"inlab","MacIntel",NA,NA,NA
"321",27754,1,0,0,1176,"repeat","number","numRpt","high","noRew","hexagon",174,"F",4,"","",NA,NA,"",NA,0.656088964999071,"f",NA,20,"inlab","MacIntel",NA,NA,NA
"322",27754,1,0,1,1177,"repeat","number","numRpt","high","noRew","circle",125,"H",4,"","",NA,NA,"",NA,0.417718573000457,"d",NA,21,"inlab","MacIntel",NA,NA,NA
"323",27754,1,0,10,1187,"repeat","number","numRpt","high","noRew","circle",146,"U",4,"","",NA,NA,"",NA,0.717400171997724,"d",NA,22,"inlab","MacIntel",NA,NA,NA
"324",27754,1,0,0,1187,"repeat","number","numRpt","high","noRew","hexagon",181,"S",4,"","",NA,NA,"",NA,0.486721813998884,"f",NA,23,"inlab","MacIntel",NA,NA,NA
"325",27754,1,0,0,1187,"repeat","number","numRpt","high","noRew","hexagon",160,"Y",4,"","",NA,NA,"",NA,0.597797785998409,"f",NA,24,"inlab","MacIntel",NA,NA,NA
"326",27754,1,0,10,1197,"repeat","number","numRpt","high","noRew","circle",174,"D",4,"","",NA,NA,"",NA,0.530794418998994,"f",NA,25,"inlab","MacIntel",NA,NA,NA
"327",27754,1,0,10,1207,"repeat","number","numRpt","high","noRew","circle",167,"B",4,"","",NA,NA,"",NA,0.577817431996664,"f",NA,26,"inlab","MacIntel",NA,NA,NA
"328",27754,1,0,0,1207,"repeat","number","numRpt","high","noRew","hexagon",146,"F",4,"","",NA,NA,"",NA,0.527382666001358,"d",NA,27,"inlab","MacIntel",NA,NA,NA
"329",27754,1,0,10,1217,"switch","letter","lettSwt","high","noRew","hexagon",181,"S",4,"","",NA,NA,"",NA,0.710542793996865,"k",NA,28,"inlab","MacIntel",NA,NA,NA
"330",27754,1,0,1,1218,"repeat","letter","lettRpt","high","noRew","circle",139,"H",4,"","",NA,NA,"",NA,0.49406519400145,"j",NA,29,"inlab","MacIntel",NA,NA,NA
"331",27754,1,0,0,1218,"repeat","letter","lettRpt","high","noRew","hexagon",125,"W",4,"","",NA,NA,"",NA,0.66261595800097,"k",NA,30,"inlab","MacIntel",NA,NA,NA
"332",27754,1,0,1,1219,"repeat","letter","lettRpt","high","noRew","circle",132,"U",4,"","",NA,NA,"",NA,0.552424443998461,"k",NA,31,"inlab","MacIntel",NA,NA,NA
"333",27754,1,0,0,1219,"switch","number","numSwt","low","noRew","triangle",146,"W",5,"","",NA,NA,"",NA,0.557489860002534,"d",NA,0,"inlab","MacIntel",NA,NA,NA
"334",27754,1,0,10,1229,"repeat","number","numRpt","low","noRew","star",160,"B",5,"","",NA,NA,"",NA,0.410435950998362,"f",NA,1,"inlab","MacIntel",NA,NA,NA
"335",27754,1,0,1,1230,"switch","letter","lettSwt","low","noRew","triangle",139,"F",5,"","",NA,NA,"",NA,0.501337259000138,"j",NA,2,"inlab","MacIntel",NA,NA,NA
"336",27754,1,0,10,1240,"repeat","letter","lettRpt","low","noRew","star",181,"H",5,"","",NA,NA,"",NA,0.509224168996298,"j",NA,3,"inlab","MacIntel",NA,NA,NA
"337",27754,1,0,1,1241,"repeat","letter","lettRpt","low","noRew","triangle",167,"U",5,"","",NA,NA,"",NA,0.4840528479981,"k",NA,4,"inlab","MacIntel",NA,NA,NA
"338",27754,0,0,0,1241,"switch","number",NA,"low","noRew","star",125,"D",5,"","",NA,NA,"",NA,0.469933045998914,"f",NA,5,"inlab","MacIntel",NA,NA,NA
"339",27754,1,1,0,1241,"repeat","number","numRpt","low","noRew","triangle",132,"Y",5,"","",NA,NA,"",NA,0.61608932099989,"d",NA,6,"inlab","MacIntel",NA,NA,NA
"340",27754,1,0,1,1242,"repeat","number","numRpt","low","noRew","star",174,"S",5,"","",NA,NA,"",NA,0.588078401997336,"f",NA,7,"inlab","MacIntel",NA,NA,NA
"341",27754,1,0,1,1243,"switch","letter","lettSwt","low","noRew","star",146,"W",5,"","",NA,NA,"",NA,0.656941598997946,"k",NA,8,"inlab","MacIntel",NA,NA,NA
"342",27754,1,0,0,1243,"switch","number","numSwt","low","noRew","triangle",160,"B",5,"","",NA,NA,"",NA,0.514963123998314,"f",NA,9,"inlab","MacIntel",NA,NA,NA
"343",27754,1,0,10,1253,"repeat","number","numRpt","low","noRew","triangle",139,"F",5,"","",NA,NA,"",NA,0.481967390001955,"d",NA,10,"inlab","MacIntel",NA,NA,NA
"344",27754,1,0,10,1263,"repeat","number","numRpt","low","noRew","star",181,"H",5,"","",NA,NA,"",NA,0.475416736000625,"f",NA,11,"inlab","MacIntel",NA,NA,NA
"345",27754,1,0,1,1264,"repeat","number","numRpt","low","noRew","triangle",167,"U",5,"","",NA,NA,"",NA,0.44454927300103,"f",NA,12,"inlab","MacIntel",NA,NA,NA
"346",27754,1,0,1,1265,"repeat","number","numRpt","low","noRew","star",125,"D",5,"","",NA,NA,"",NA,0.463572585998918,"d",NA,13,"inlab","MacIntel",NA,NA,NA
"347",27754,1,0,0,1265,"switch","letter","lettSwt","low","noRew","triangle",132,"Y",5,"","",NA,NA,"",NA,0.881333432000247,"k",NA,14,"inlab","MacIntel",NA,NA,NA
"348",27754,0,0,0,1265,"repeat","letter",NA,"low","noRew","star",174,"S",5,"","",NA,NA,"",NA,0.56305215699831,"j",NA,15,"inlab","MacIntel",NA,NA,NA
"349",27754,1,1,10,1275,"repeat","letter","lettRpt","low","noRew","triangle",146,"B",5,"","",NA,NA,"",NA,0.472416740998597,"j",NA,16,"inlab","MacIntel",NA,NA,NA
"350",27754,1,0,1,1276,"repeat","letter","lettRpt","low","noRew","star",160,"S",5,"","",NA,NA,"",NA,0.698789948000922,"k",NA,17,"inlab","MacIntel",NA,NA,NA
"351",27754,1,0,0,1276,"repeat","letter","lettRpt","low","noRew","triangle",132,"D",5,"","",NA,NA,"",NA,0.611107208998874,"j",NA,18,"inlab","MacIntel",NA,NA,NA
"352",27754,1,0,1,1277,"repeat","letter","lettRpt","low","noRew","star",139,"Y",5,"","",NA,NA,"",NA,0.87162539199926,"k",NA,19,"inlab","MacIntel",NA,NA,NA
"353",27754,1,0,1,1278,"repeat","letter","lettRpt","low","noRew","star",167,"F",5,"","",NA,NA,"",NA,0.624788283999806,"j",NA,20,"inlab","MacIntel",NA,NA,NA
"354",27754,1,0,1,1279,"repeat","letter","lettRpt","low","noRew","triangle",181,"W",5,"","",NA,NA,"",NA,0.491088891998515,"k",NA,21,"inlab","MacIntel",NA,NA,NA
"355",27754,1,0,0,1279,"repeat","letter","lettRpt","low","noRew","triangle",174,"H",5,"","",NA,NA,"",NA,0.540667828998266,"j",NA,22,"inlab","MacIntel",NA,NA,NA
"356",27754,1,0,1,1280,"switch","number","numSwt","low","noRew","star",125,"U",5,"","",NA,NA,"",NA,0.53854978399977,"d",NA,23,"inlab","MacIntel",NA,NA,NA
"357",27754,1,0,10,1290,"switch","letter","lettSwt","low","noRew","triangle",139,"F",5,"","",NA,NA,"",NA,0.560508611997648,"j",NA,24,"inlab","MacIntel",NA,NA,NA
"358",27754,1,0,10,1300,"switch","number","numSwt","low","noRew","star",146,"U",5,"","",NA,NA,"",NA,0.662913411000773,"d",NA,25,"inlab","MacIntel",NA,NA,NA
"359",27754,1,0,10,1310,"switch","letter","lettSwt","low","noRew","star",181,"S",5,"","",NA,NA,"",NA,0.705122404997382,"k",NA,26,"inlab","MacIntel",NA,NA,NA
"360",27754,1,0,0,1310,"switch","number","numSwt","low","noRew","triangle",132,"B",5,"","",NA,NA,"",NA,0.696283662997303,"d",NA,27,"inlab","MacIntel",NA,NA,NA
"361",27754,1,0,1,1311,"switch","letter","lettSwt","low","noRew","star",160,"H",5,"","",NA,NA,"",NA,0.665260762001708,"j",NA,28,"inlab","MacIntel",NA,NA,NA
"362",27754,1,0,0,1311,"switch","number","numSwt","low","noRew","triangle",174,"D",5,"","",NA,NA,"",NA,0.515494545998081,"f",NA,29,"inlab","MacIntel",NA,NA,NA
"363",27754,1,0,10,1321,"repeat","number","numRpt","low","noRew","triangle",125,"W",5,"","",NA,NA,"",NA,0.482217442000547,"d",NA,30,"inlab","MacIntel",NA,NA,NA
"364",27754,1,0,1,1322,"repeat","number","numRpt","low","noRew","star",167,"Y",5,"","",NA,NA,"",NA,0.478312052000547,"f",NA,31,"inlab","MacIntel",NA,NA,NA
