"","participant","acc","E1","points_trial","points_cumul","alt","task","condition","rewCond","curr_shape","curr_topStim","curr_bottStim","blockNum","LShape_ID","RShape_ID","trainBlock","training.thisN","training_resp.keys","training_resp.rt","target_resp.rt","target_resp.keys","trials_norew.thisRepN","trials_rew.thisRepN","platform","OS","browser","xResolution","yResolution","rewExpect"
"1",28713,NA,NA,1,1,"","","training","","","",NA,NA,"star","hexagon",0,0,"l",8.93529020299684,NA,"",NA,NA,"inlab","MacIntel",NA,NA,NA,NA
"2",28713,NA,NA,10,11,"","","training","","","",NA,NA,"hexagon","triangle",0,1,"a",11.1540989779969,NA,"",NA,NA,"inlab","MacIntel",NA,NA,NA,NA
"3",28713,NA,NA,10,21,"","","training","","","",NA,NA,"circle","hexagon",0,2,"l",4.47775195699796,NA,"",NA,NA,"inlab","MacIntel",NA,NA,NA,NA
"4",28713,NA,NA,1,22,"","","training","","","",NA,NA,"triangle","star",0,3,"l",8.07533657899694,NA,"",NA,NA,"inlab","MacIntel",NA,NA,NA,NA
"5",28713,NA,NA,10,32,"","","training","","","",NA,NA,"triangle","circle",0,4,"a",2.30789335899681,NA,"",NA,NA,"inlab","MacIntel",NA,NA,NA,NA
"6",28713,NA,NA,1,33,"","","training","","","",NA,NA,"star","triangle",0,5,"l",11.9625243980008,NA,"",NA,NA,"inlab","MacIntel",NA,NA,NA,NA
"7",28713,NA,NA,1,34,"","","training","","","",NA,NA,"circle","star",0,6,"l",3.05060881199825,NA,"",NA,NA,"inlab","MacIntel",NA,NA,NA,NA
"8",28713,NA,NA,1,35,"","","training","","","",NA,NA,"triangle","hexagon",0,7,"l",2.16988951399981,NA,"",NA,NA,"inlab","MacIntel",NA,NA,NA,NA
"9",28713,NA,NA,1,36,"","","training","","","",NA,NA,"star","circle",0,8,"a",2.41432380199694,NA,"",NA,NA,"inlab","MacIntel",NA,NA,NA,NA
"10",28713,NA,NA,10,46,"","","training","","","",NA,NA,"circle","triangle",0,9,"a",2.33673822599667,NA,"",NA,NA,"inlab","MacIntel",NA,NA,NA,NA
"11",28713,NA,NA,10,56,"","","training","","","",NA,NA,"hexagon","star",0,10,"a",2.48524650999752,NA,"",NA,NA,"inlab","MacIntel",NA,NA,NA,NA
"12",28713,NA,NA,10,66,"","","training","","","",NA,NA,"hexagon","circle",0,11,"l",5.42898229199636,NA,"",NA,NA,"inlab","MacIntel",NA,NA,NA,NA
"13",28713,NA,NA,10,76,"","","training","","","",NA,NA,"circle","triangle",0,12,"l",7.68899202899775,NA,"",NA,NA,"inlab","MacIntel",NA,NA,NA,NA
"14",28713,NA,NA,1,77,"","","training","","","",NA,NA,"circle","star",0,13,"l",3.19406279899704,NA,"",NA,NA,"inlab","MacIntel",NA,NA,NA,NA
"15",28713,NA,NA,1,78,"","","training","","","",NA,NA,"circle","hexagon",0,14,"l",3.54809997599659,NA,"",NA,NA,"inlab","MacIntel",NA,NA,NA,NA
"16",28713,NA,NA,10,88,"","","training","","","",NA,NA,"triangle","hexagon",0,15,"l",2.75209417399674,NA,"",NA,NA,"inlab","MacIntel",NA,NA,NA,NA
"17",28713,NA,NA,10,98,"","","training","","","",NA,NA,"triangle","circle",0,16,"a",10.1159861399974,NA,"",NA,NA,"inlab","MacIntel",NA,NA,NA,NA
"18",28713,NA,NA,10,108,"","","training","","","",NA,NA,"triangle","star",0,17,"a",2.53689684599885,NA,"",NA,NA,"inlab","MacIntel",NA,NA,NA,NA
"19",28713,NA,NA,1,109,"","","training","","","",NA,NA,"star","hexagon",0,18,"a",1.99641504999818,NA,"",NA,NA,"inlab","MacIntel",NA,NA,NA,NA
"20",28713,NA,NA,1,110,"","","training","","","",NA,NA,"star","circle",0,19,"a",9.2959322209972,NA,"",NA,NA,"inlab","MacIntel",NA,NA,NA,NA
"21",28713,NA,NA,10,120,"","","training","","","",NA,NA,"hexagon","circle",0,20,"l",8.23210519900022,NA,"",NA,NA,"inlab","MacIntel",NA,NA,NA,NA
"22",28713,NA,NA,1,121,"","","training","","","",NA,NA,"hexagon","star",0,21,"a",1.2093775789981,NA,"",NA,NA,"inlab","MacIntel",NA,NA,NA,NA
"23",28713,NA,NA,10,131,"","","training","","","",NA,NA,"hexagon","triangle",0,22,"a",2.99583884599633,NA,"",NA,NA,"inlab","MacIntel",NA,NA,NA,NA
"24",28713,NA,NA,1,132,"","","training","","","",NA,NA,"star","triangle",0,23,"l",2.60574379999889,NA,"",NA,NA,"inlab","MacIntel",NA,NA,NA,NA
"25",28713,NA,NA,1,133,"","","training","","","",NA,NA,"star","hexagon",0,24,"a",1.48734757999773,NA,"",NA,NA,"inlab","MacIntel",NA,NA,NA,NA
"26",28713,NA,NA,1,134,"","","training","","","",NA,NA,"hexagon","circle",0,25,"l",2.87856888199531,NA,"",NA,NA,"inlab","MacIntel",NA,NA,NA,NA
"27",28713,NA,NA,1,135,"","","training","","","",NA,NA,"star","circle",0,26,"a",1.04601663999711,NA,"",NA,NA,"inlab","MacIntel",NA,NA,NA,NA
"28",28713,NA,NA,10,145,"","","training","","","",NA,NA,"hexagon","star",0,27,"a",2.51187884099636,NA,"",NA,NA,"inlab","MacIntel",NA,NA,NA,NA
"29",28713,NA,NA,1,146,"","","training","","","",NA,NA,"hexagon","triangle",0,28,"a",3.31774721899637,NA,"",NA,NA,"inlab","MacIntel",NA,NA,NA,NA
"30",28713,NA,NA,1,147,"","","training","","","",NA,NA,"triangle","star",0,29,"l",1.46621971499917,NA,"",NA,NA,"inlab","MacIntel",NA,NA,NA,NA
"31",28713,NA,NA,1,148,"","","training","","","",NA,NA,"circle","triangle",0,30,"a",8.75461409599666,NA,"",NA,NA,"inlab","MacIntel",NA,NA,NA,NA
"32",28713,NA,NA,10,158,"","","training","","","",NA,NA,"star","triangle",0,31,"l",7.84812290799891,NA,"",NA,NA,"inlab","MacIntel",NA,NA,NA,NA
"33",28713,NA,NA,10,168,"","","training","","","",NA,NA,"circle","star",0,32,"a",4.09863620599936,NA,"",NA,NA,"inlab","MacIntel",NA,NA,NA,NA
"34",28713,NA,NA,10,178,"","","training","","","",NA,NA,"triangle","circle",0,33,"l",3.52684874899933,NA,"",NA,NA,"inlab","MacIntel",NA,NA,NA,NA
"35",28713,NA,NA,1,179,"","","training","","","",NA,NA,"triangle","hexagon",0,34,"l",3.4355460639963,NA,"",NA,NA,"inlab","MacIntel",NA,NA,NA,NA
"36",28713,NA,NA,10,189,"","","training","","","",NA,NA,"circle","hexagon",0,35,"a",1.51574461099881,NA,"",NA,NA,"inlab","MacIntel",NA,NA,NA,NA
"37",28713,NA,NA,1,190,"","","training","","","",NA,NA,"star","triangle",1,0,"a",13.7467420139983,NA,"",NA,NA,"inlab","MacIntel",NA,NA,NA,NA
"38",28713,NA,NA,1,191,"","","training","","","",NA,NA,"hexagon","star",1,1,"l",1.38509501299632,NA,"",NA,NA,"inlab","MacIntel",NA,NA,NA,NA
"39",28713,NA,NA,1,192,"","","training","","","",NA,NA,"star","hexagon",1,2,"l",1.40387116100101,NA,"",NA,NA,"inlab","MacIntel",NA,NA,NA,NA
"40",28713,NA,NA,10,202,"","","training","","","",NA,NA,"triangle","circle",1,3,"l",0.918583904996922,NA,"",NA,NA,"inlab","MacIntel",NA,NA,NA,NA
"41",28713,NA,NA,10,212,"","","training","","","",NA,NA,"hexagon","circle",1,4,"l",0.902348119998351,NA,"",NA,NA,"inlab","MacIntel",NA,NA,NA,NA
"42",28713,NA,NA,10,222,"","","training","","","",NA,NA,"circle","triangle",1,5,"a",1.03591877299914,NA,"",NA,NA,"inlab","MacIntel",NA,NA,NA,NA
"43",28713,NA,NA,1,223,"","","training","","","",NA,NA,"hexagon","triangle",1,6,"l",3.90373764899778,NA,"",NA,NA,"inlab","MacIntel",NA,NA,NA,NA
"44",28713,NA,NA,10,233,"","","training","","","",NA,NA,"circle","star",1,7,"l",1.21103576699534,NA,"",NA,NA,"inlab","MacIntel",NA,NA,NA,NA
"45",28713,NA,NA,10,243,"","","training","","","",NA,NA,"circle","hexagon",1,8,"a",1.69432821800001,NA,"",NA,NA,"inlab","MacIntel",NA,NA,NA,NA
"46",28713,NA,NA,10,253,"","","training","","","",NA,NA,"triangle","hexagon",1,9,"a",1.20640140899559,NA,"",NA,NA,"inlab","MacIntel",NA,NA,NA,NA
"47",28713,NA,NA,10,263,"","","training","","","",NA,NA,"star","circle",1,10,"l",1.12942538800053,NA,"",NA,NA,"inlab","MacIntel",NA,NA,NA,NA
"48",28713,NA,NA,10,273,"","","training","","","",NA,NA,"triangle","star",1,11,"l",2.51168083399898,NA,"",NA,NA,"inlab","MacIntel",NA,NA,NA,NA
"49",28713,NA,NA,1,274,"","","training","","","",NA,NA,"hexagon","star",1,12,"a",1.19694594499742,NA,"",NA,NA,"inlab","MacIntel",NA,NA,NA,NA
"50",28713,NA,NA,1,275,"","","training","","","",NA,NA,"circle","star",1,13,"l",0.584984403998533,NA,"",NA,NA,"inlab","MacIntel",NA,NA,NA,NA
"51",28713,NA,NA,1,276,"","","training","","","",NA,NA,"hexagon","triangle",1,14,"l",0.902147049997438,NA,"",NA,NA,"inlab","MacIntel",NA,NA,NA,NA
"52",28713,NA,NA,10,286,"","","training","","","",NA,NA,"hexagon","circle",1,15,"l",0.719044399997074,NA,"",NA,NA,"inlab","MacIntel",NA,NA,NA,NA
"53",28713,NA,NA,10,296,"","","training","","","",NA,NA,"star","circle",1,16,"l",0.692653263995453,NA,"",NA,NA,"inlab","MacIntel",NA,NA,NA,NA
"54",28713,NA,NA,10,306,"","","training","","","",NA,NA,"star","triangle",1,17,"a",0.692564507997304,NA,"",NA,NA,"inlab","MacIntel",NA,NA,NA,NA
"55",28713,NA,NA,10,316,"","","training","","","",NA,NA,"triangle","hexagon",1,18,"a",2.30883653999626,NA,"",NA,NA,"inlab","MacIntel",NA,NA,NA,NA
"56",28713,NA,NA,10,326,"","","training","","","",NA,NA,"circle","hexagon",1,19,"a",3.12210409299951,NA,"",NA,NA,"inlab","MacIntel",NA,NA,NA,NA
"57",28713,NA,NA,10,336,"","","training","","","",NA,NA,"circle","triangle",1,20,"a",0.702862913996796,NA,"",NA,NA,"inlab","MacIntel",NA,NA,NA,NA
"58",28713,NA,NA,1,337,"","","training","","","",NA,NA,"triangle","circle",1,21,"l",0.669847435998236,NA,"",NA,NA,"inlab","MacIntel",NA,NA,NA,NA
"59",28713,NA,NA,10,347,"","","training","","","",NA,NA,"star","hexagon",1,22,"a",1.00139442399814,NA,"",NA,NA,"inlab","MacIntel",NA,NA,NA,NA
"60",28713,NA,NA,1,348,"","","training","","","",NA,NA,"triangle","star",1,23,"l",0.844054991997837,NA,"",NA,NA,"inlab","MacIntel",NA,NA,NA,NA
"61",28713,NA,NA,10,358,"","","training","","","",NA,NA,"star","circle",1,24,"l",0.973506448997796,NA,"",NA,NA,"inlab","MacIntel",NA,NA,NA,NA
"62",28713,NA,NA,1,359,"","","training","","","",NA,NA,"hexagon","triangle",1,25,"a",3.42133132899835,NA,"",NA,NA,"inlab","MacIntel",NA,NA,NA,NA
"63",28713,NA,NA,1,360,"","","training","","","",NA,NA,"triangle","hexagon",1,26,"l",5.57976855399829,NA,"",NA,NA,"inlab","MacIntel",NA,NA,NA,NA
"64",28713,NA,NA,1,361,"","","training","","","",NA,NA,"hexagon","circle",1,27,"l",0.84236146299736,NA,"",NA,NA,"inlab","MacIntel",NA,NA,NA,NA
"65",28713,NA,NA,10,371,"","","training","","","",NA,NA,"circle","triangle",1,28,"a",1.29356917099722,NA,"",NA,NA,"inlab","MacIntel",NA,NA,NA,NA
"66",28713,NA,NA,1,372,"","","training","","","",NA,NA,"star","triangle",1,29,"a",1.85319698499734,NA,"",NA,NA,"inlab","MacIntel",NA,NA,NA,NA
"67",28713,NA,NA,10,382,"","","training","","","",NA,NA,"circle","star",1,30,"a",1.33432311599609,NA,"",NA,NA,"inlab","MacIntel",NA,NA,NA,NA
"68",28713,NA,NA,10,392,"","","training","","","",NA,NA,"circle","hexagon",1,31,"a",0.916668446996482,NA,"",NA,NA,"inlab","MacIntel",NA,NA,NA,NA
"69",28713,NA,NA,1,393,"","","training","","","",NA,NA,"star","hexagon",1,32,"a",2.35445564099791,NA,"",NA,NA,"inlab","MacIntel",NA,NA,NA,NA
"70",28713,NA,NA,1,394,"","","training","","","",NA,NA,"triangle","star",1,33,"l",1.45512318900001,NA,"",NA,NA,"inlab","MacIntel",NA,NA,NA,NA
"71",28713,NA,NA,1,395,"","","training","","","",NA,NA,"hexagon","star",1,34,"l",2.23995271799504,NA,"",NA,NA,"inlab","MacIntel",NA,NA,NA,NA
"72",28713,NA,NA,10,405,"","","training","","","",NA,NA,"triangle","circle",1,35,"l",2.72774690699953,NA,"",NA,NA,"inlab","MacIntel",NA,NA,NA,NA
"73",28713,NA,NA,10,415,"","","training","","","",NA,NA,"circle","hexagon",2,0,"a",2.79808585599676,NA,"",NA,NA,"inlab","MacIntel",NA,NA,NA,NA
"74",28713,NA,NA,1,416,"","","training","","","",NA,NA,"triangle","star",2,1,"a",2.25347916399915,NA,"",NA,NA,"inlab","MacIntel",NA,NA,NA,NA
"75",28713,NA,NA,1,417,"","","training","","","",NA,NA,"hexagon","star",2,2,"a",1.84409701199547,NA,"",NA,NA,"inlab","MacIntel",NA,NA,NA,NA
"76",28713,NA,NA,1,418,"","","training","","","",NA,NA,"triangle","circle",2,3,"l",1.077870754998,NA,"",NA,NA,"inlab","MacIntel",NA,NA,NA,NA
"77",28713,NA,NA,10,428,"","","training","","","",NA,NA,"circle","star",2,4,"a",1.14268979999906,NA,"",NA,NA,"inlab","MacIntel",NA,NA,NA,NA
"78",28713,NA,NA,10,438,"","","training","","","",NA,NA,"circle","triangle",2,5,"a",1.98777419500038,NA,"",NA,NA,"inlab","MacIntel",NA,NA,NA,NA
"79",28713,NA,NA,1,439,"","","training","","","",NA,NA,"star","triangle",2,6,"l",1.66998747099933,NA,"",NA,NA,"inlab","MacIntel",NA,NA,NA,NA
"80",28713,NA,NA,10,449,"","","training","","","",NA,NA,"star","circle",2,7,"l",1.06320744299592,NA,"",NA,NA,"inlab","MacIntel",NA,NA,NA,NA
"81",28713,NA,NA,1,450,"","","training","","","",NA,NA,"star","hexagon",2,8,"l",9.43941791499674,NA,"",NA,NA,"inlab","MacIntel",NA,NA,NA,NA
"82",28713,NA,NA,1,451,"","","training","","","",NA,NA,"triangle","hexagon",2,9,"l",2.32117533199926,NA,"",NA,NA,"inlab","MacIntel",NA,NA,NA,NA
"83",28713,NA,NA,1,452,"","","training","","","",NA,NA,"hexagon","triangle",2,10,"a",1.3508877039967,NA,"",NA,NA,"inlab","MacIntel",NA,NA,NA,NA
"84",28713,NA,NA,10,462,"","","training","","","",NA,NA,"hexagon","circle",2,11,"l",0.659768447996612,NA,"",NA,NA,"inlab","MacIntel",NA,NA,NA,NA
"85",28713,NA,NA,10,472,"","","training","","","",NA,NA,"circle","triangle",2,12,"a",1.5972192679983,NA,"",NA,NA,"inlab","MacIntel",NA,NA,NA,NA
"86",28713,NA,NA,1,473,"","","training","","","",NA,NA,"hexagon","star",2,13,"l",4.0648885399969,NA,"",NA,NA,"inlab","MacIntel",NA,NA,NA,NA
"87",28713,NA,NA,1,474,"","","training","","","",NA,NA,"triangle","circle",2,14,"l",0.710452954001084,NA,"",NA,NA,"inlab","MacIntel",NA,NA,NA,NA
"88",28713,NA,NA,10,484,"","","training","","","",NA,NA,"circle","star",2,15,"a",2.2784135059992,NA,"",NA,NA,"inlab","MacIntel",NA,NA,NA,NA
"89",28713,NA,NA,1,485,"","","training","","","",NA,NA,"star","triangle",2,16,"a",1.96632146499542,NA,"",NA,NA,"inlab","MacIntel",NA,NA,NA,NA
"90",28713,NA,NA,1,486,"","","training","","","",NA,NA,"star","hexagon",2,17,"l",1.03549002699947,NA,"",NA,NA,"inlab","MacIntel",NA,NA,NA,NA
"91",28713,NA,NA,1,487,"","","training","","","",NA,NA,"circle","hexagon",2,18,"a",0.484963276998315,NA,"",NA,NA,"inlab","MacIntel",NA,NA,NA,NA
"92",28713,NA,NA,10,497,"","","training","","","",NA,NA,"triangle","hexagon",2,19,"l",1.76468539200141,NA,"",NA,NA,"inlab","MacIntel",NA,NA,NA,NA
"93",28713,NA,NA,10,507,"","","training","","","",NA,NA,"star","circle",2,20,"l",0.776560110996797,NA,"",NA,NA,"inlab","MacIntel",NA,NA,NA,NA
"94",28713,NA,NA,10,517,"","","training","","","",NA,NA,"triangle","star",2,21,"a",1.28584223500002,NA,"",NA,NA,"inlab","MacIntel",NA,NA,NA,NA
"95",28713,NA,NA,10,527,"","","training","","","",NA,NA,"hexagon","triangle",2,22,"l",1.41413393599942,NA,"",NA,NA,"inlab","MacIntel",NA,NA,NA,NA
"96",28713,NA,NA,10,537,"","","training","","","",NA,NA,"hexagon","circle",2,23,"l",1.56932124399827,NA,"",NA,NA,"inlab","MacIntel",NA,NA,NA,NA
"97",28713,NA,NA,10,547,"","","training","","","",NA,NA,"star","circle",2,24,"l",1.91647214499972,NA,"",NA,NA,"inlab","MacIntel",NA,NA,NA,NA
"98",28713,NA,NA,10,557,"","","training","","","",NA,NA,"hexagon","star",2,25,"a",2.89894169299805,NA,"",NA,NA,"inlab","MacIntel",NA,NA,NA,NA
"99",28713,NA,NA,10,567,"","","training","","","",NA,NA,"circle","star",2,26,"l",5.50649264700041,NA,"",NA,NA,"inlab","MacIntel",NA,NA,NA,NA
"100",28713,NA,NA,10,577,"","","training","","","",NA,NA,"star","triangle",2,27,"l",2.94815551199645,NA,"",NA,NA,"inlab","MacIntel",NA,NA,NA,NA
"101",28713,NA,NA,10,587,"","","training","","","",NA,NA,"circle","triangle",2,28,"a",1.21582938899883,NA,"",NA,NA,"inlab","MacIntel",NA,NA,NA,NA
"102",28713,NA,NA,1,588,"","","training","","","",NA,NA,"star","hexagon",2,29,"a",8.88211738199607,NA,"",NA,NA,"inlab","MacIntel",NA,NA,NA,NA
"103",28713,NA,NA,1,589,"","","training","","","",NA,NA,"triangle","star",2,30,"l",1.28376403499715,NA,"",NA,NA,"inlab","MacIntel",NA,NA,NA,NA
"104",28713,NA,NA,10,599,"","","training","","","",NA,NA,"hexagon","triangle",2,31,"l",3.43532365799911,NA,"",NA,NA,"inlab","MacIntel",NA,NA,NA,NA
"105",28713,NA,NA,10,609,"","","training","","","",NA,NA,"triangle","hexagon",2,32,"l",0.618493682999542,NA,"",NA,NA,"inlab","MacIntel",NA,NA,NA,NA
"106",28713,NA,NA,10,619,"","","training","","","",NA,NA,"circle","hexagon",2,33,"a",0.686316448998696,NA,"",NA,NA,"inlab","MacIntel",NA,NA,NA,NA
"107",28713,NA,NA,10,629,"","","training","","","",NA,NA,"hexagon","circle",2,34,"l",1.46219096899586,NA,"",NA,NA,"inlab","MacIntel",NA,NA,NA,NA
"108",28713,NA,NA,1,630,"","","training","","","",NA,NA,"triangle","circle",2,35,"l",3.19930123499944,NA,"",NA,NA,"inlab","MacIntel",NA,NA,NA,NA
"109",28713,1,0,0,630,"repeat","letter","lettRpt","noRew","circle","D",139,0,"","",NA,NA,"",NA,1.03996435899535,"d",0,NA,"inlab","MacIntel",NA,NA,NA,NA
"110",28713,1,0,0,630,"repeat","letter","lettRpt","noRew","hexagon","S",181,0,"","",NA,NA,"",NA,0.904205632996309,"f",1,NA,"inlab","MacIntel",NA,NA,NA,NA
"111",28713,1,0,0,630,"repeat","letter","lettRpt","noRew","hexagon","W",125,0,"","",NA,NA,"",NA,1.79836533599882,"f",2,NA,"inlab","MacIntel",NA,NA,NA,NA
"112",28713,0,0,0,630,"repeat","letter",NA,"noRew","star","H",160,0,"","",NA,NA,"",NA,0.712484224997752,"f",3,NA,"inlab","MacIntel",NA,NA,NA,NA
"113",28713,1,1,0,630,"repeat","letter","lettRpt","noRew","triangle","D",139,0,"","",NA,NA,"",NA,1.4540022159963,"d",4,NA,"inlab","MacIntel",NA,NA,NA,NA
"114",28713,1,0,0,630,"repeat","letter","lettRpt","noRew","star","S",181,0,"","",NA,NA,"",NA,0.934690205998777,"f",5,NA,"inlab","MacIntel",NA,NA,NA,NA
"115",28713,1,0,0,630,"repeat","letter","lettRpt","noRew","hexagon","W",125,0,"","",NA,NA,"",NA,1.21908389199598,"f",6,NA,"inlab","MacIntel",NA,NA,NA,NA
"116",28713,1,0,0,630,"switch","number","numSwt","noRew","star","H",160,0,"","",NA,NA,"",NA,0.788437889998022,"k",7,NA,"inlab","MacIntel",NA,NA,NA,NA
"117",28713,1,0,0,630,"repeat","number","numRpt","noRew","triangle","D",125,0,"","",NA,NA,"",NA,0.783295406996331,"j",8,NA,"inlab","MacIntel",NA,NA,NA,NA
"118",28713,1,0,0,630,"repeat","number","numRpt","noRew","star","S",160,0,"","",NA,NA,"",NA,0.913194190998183,"k",9,NA,"inlab","MacIntel",NA,NA,NA,NA
"119",28713,1,0,0,630,"repeat","number","numRpt","noRew","star","F",146,0,"","",NA,NA,"",NA,0.918624228997942,"j",10,NA,"inlab","MacIntel",NA,NA,NA,NA
"120",28713,1,0,0,630,"repeat","number","numRpt","noRew","hexagon","W",132,0,"","",NA,NA,"",NA,0.965109903998382,"j",11,NA,"inlab","MacIntel",NA,NA,NA,NA
"121",28713,1,0,0,630,"repeat","number","numRpt","noRew","triangle","D",132,0,"","",NA,NA,"",NA,0.633911476998037,"j",12,NA,"inlab","MacIntel",NA,NA,NA,NA
"122",28713,1,0,0,630,"switch","letter","lettSwt","noRew","circle","S",181,0,"","",NA,NA,"",NA,0.651857298998948,"f",13,NA,"inlab","MacIntel",NA,NA,NA,NA
"123",28713,1,0,0,630,"repeat","letter","lettRpt","noRew","hexagon","Y",125,0,"","",NA,NA,"",NA,0.562824696997268,"f",14,NA,"inlab","MacIntel",NA,NA,NA,NA
"124",28713,1,0,0,630,"repeat","letter","lettRpt","noRew","triangle","B",139,0,"","",NA,NA,"",NA,1.43007565499647,"d",15,NA,"inlab","MacIntel",NA,NA,NA,NA
"125",28713,1,0,0,630,"repeat","letter","lettRpt","noRew","circle","H",181,0,"","",NA,NA,"",NA,0.839358313998673,"d",16,NA,"inlab","MacIntel",NA,NA,NA,NA
"126",28713,1,0,0,630,"repeat","letter","lettRpt","noRew","star","F",167,0,"","",NA,NA,"",NA,1.86444904599557,"d",17,NA,"inlab","MacIntel",NA,NA,NA,NA
"127",28713,1,0,0,630,"repeat","letter","lettRpt","noRew","hexagon","U",146,0,"","",NA,NA,"",NA,1.03951456699724,"f",18,NA,"inlab","MacIntel",NA,NA,NA,NA
"128",28713,1,0,0,630,"repeat","letter","lettRpt","noRew","star","D",139,0,"","",NA,NA,"",NA,1.29452805099936,"d",19,NA,"inlab","MacIntel",NA,NA,NA,NA
"129",28713,1,0,0,630,"switch","number","numSwt","noRew","triangle","U",139,0,"","",NA,NA,"",NA,0.70913107299566,"j",20,NA,"inlab","MacIntel",NA,NA,NA,NA
"130",28713,1,0,0,630,"repeat","number","numRpt","noRew","star","D",132,0,"","",NA,NA,"",NA,0.755456520997541,"j",21,NA,"inlab","MacIntel",NA,NA,NA,NA
"131",28713,1,0,0,630,"repeat","number","numRpt","noRew","star","S",146,0,"","",NA,NA,"",NA,0.735187518996099,"j",22,NA,"inlab","MacIntel",NA,NA,NA,NA
"132",28713,1,0,0,630,"switch","letter","lettSwt","noRew","hexagon","Y",181,0,"","",NA,NA,"",NA,0.91785608599821,"f",23,NA,"inlab","MacIntel",NA,NA,NA,NA
"133",28713,1,0,0,630,"repeat","letter","lettRpt","noRew","circle","W",174,0,"","",NA,NA,"",NA,1.37841752799795,"f",24,NA,"inlab","MacIntel",NA,NA,NA,NA
"134",28713,1,0,0,630,"repeat","letter","lettRpt","noRew","hexagon","D",181,0,"","",NA,NA,"",NA,0.972513302996958,"d",25,NA,"inlab","MacIntel",NA,NA,NA,NA
"135",28713,1,0,0,630,"switch","number","numSwt","noRew","hexagon","F",160,0,"","",NA,NA,"",NA,0.584829724997689,"k",26,NA,"inlab","MacIntel",NA,NA,NA,NA
"136",28713,1,0,0,630,"repeat","number","numRpt","noRew","star","S",125,0,"","",NA,NA,"",NA,0.618308720997447,"j",27,NA,"inlab","MacIntel",NA,NA,NA,NA
"137",28713,1,0,0,630,"repeat","number","numRpt","noRew","star","F",146,0,"","",NA,NA,"",NA,1.4365618189986,"j",28,NA,"inlab","MacIntel",NA,NA,NA,NA
"138",28713,1,0,0,630,"repeat","number","numRpt","noRew","triangle","D",139,0,"","",NA,NA,"",NA,0.781145500997809,"j",29,NA,"inlab","MacIntel",NA,NA,NA,NA
"139",28713,1,0,0,630,"repeat","number","numRpt","noRew","triangle","U",174,0,"","",NA,NA,"",NA,0.791686590997415,"k",30,NA,"inlab","MacIntel",NA,NA,NA,NA
"140",28713,0,0,0,630,"switch","letter",NA,"noRew","star","H",181,0,"","",NA,NA,"",NA,1.0586550529988,"f",31,NA,"inlab","MacIntel",NA,NA,NA,NA
"141",28713,1,1,0,630,"repeat","letter","lettRpt","noRew","star","H",181,0,"","",NA,NA,"",NA,0.842510698999831,"d",32,NA,"inlab","MacIntel",NA,NA,NA,NA
"142",28713,1,0,0,630,"repeat","letter","lettRpt","noRew","triangle","W",160,0,"","",NA,NA,"",NA,0.690818010996736,"f",33,NA,"inlab","MacIntel",NA,NA,NA,NA
"143",28713,1,0,0,630,"repeat","letter","lettRpt","noRew","hexagon","S",174,0,"","",NA,NA,"",NA,1.48979688099644,"f",34,NA,"inlab","MacIntel",NA,NA,NA,NA
"144",28713,1,0,0,630,"repeat","letter","lettRpt","noRew","star","U",167,0,"","",NA,NA,"",NA,0.775143316997855,"f",35,NA,"inlab","MacIntel",NA,NA,NA,NA
"145",28713,1,0,0,630,"repeat","letter","lettRpt","noRew","star","D",167,0,"","",NA,NA,"",NA,0.7701243349984,"d",36,NA,"inlab","MacIntel",NA,NA,NA,NA
"146",28713,1,0,0,630,"repeat","letter","lettRpt","noRew","hexagon","U",174,0,"","",NA,NA,"",NA,0.61488521299907,"f",37,NA,"inlab","MacIntel",NA,NA,NA,NA
"147",28713,1,0,0,630,"repeat","letter","lettRpt","noRew","hexagon","F",181,0,"","",NA,NA,"",NA,0.968514916996355,"d",38,NA,"inlab","MacIntel",NA,NA,NA,NA
"148",28713,1,0,0,630,"switch","number","numSwt","noRew","star","B",146,0,"","",NA,NA,"",NA,1.00408119799977,"j",39,NA,"inlab","MacIntel",NA,NA,NA,NA
"149",28713,1,0,0,630,"repeat","number","numRpt","noRew","triangle","W",167,0,"","",NA,NA,"",NA,0.86163604599642,"k",40,NA,"inlab","MacIntel",NA,NA,NA,NA
"150",28713,1,0,0,630,"repeat","number","numRpt","noRew","star","H",146,0,"","",NA,NA,"",NA,0.868818603998079,"j",41,NA,"inlab","MacIntel",NA,NA,NA,NA
"151",28713,1,0,0,630,"repeat","number","numRpt","noRew","triangle","B",132,0,"","",NA,NA,"",NA,1.01247978399988,"j",42,NA,"inlab","MacIntel",NA,NA,NA,NA
"152",28713,1,0,0,630,"repeat","number","numRpt","noRew","circle","U",139,0,"","",NA,NA,"",NA,0.606202905997634,"j",43,NA,"inlab","MacIntel",NA,NA,NA,NA
"153",28713,1,0,0,630,"repeat","number","numRpt","noRew","triangle","Y",174,0,"","",NA,NA,"",NA,1.00179145499715,"k",44,NA,"inlab","MacIntel",NA,NA,NA,NA
"154",28713,1,0,0,630,"switch","letter","lettSwt","noRew","circle","B",181,0,"","",NA,NA,"",NA,1.25939272499818,"d",45,NA,"inlab","MacIntel",NA,NA,NA,NA
"155",28713,1,0,0,630,"repeat","letter","lettRpt","noRew","circle","W",139,0,"","",NA,NA,"",NA,0.946600445997319,"f",46,NA,"inlab","MacIntel",NA,NA,NA,NA
"156",28713,1,0,0,630,"repeat","letter","lettRpt","noRew","star","S",125,0,"","",NA,NA,"",NA,1.31113684399679,"f",47,NA,"inlab","MacIntel",NA,NA,NA,NA
"157",28713,1,0,0,630,"repeat","letter","lettRpt","noRew","triangle","B",132,0,"","",NA,NA,"",NA,1.32440696100093,"d",48,NA,"inlab","MacIntel",NA,NA,NA,NA
"158",28713,1,0,0,630,"repeat","letter","lettRpt","noRew","hexagon","D",125,0,"","",NA,NA,"",NA,1.24874404999719,"d",49,NA,"inlab","MacIntel",NA,NA,NA,NA
"159",28713,1,0,0,630,"switch","number","numSwt","noRew","star","H",146,0,"","",NA,NA,"",NA,0.712955444996624,"j",50,NA,"inlab","MacIntel",NA,NA,NA,NA
"160",28713,1,0,0,630,"switch","letter","lettSwt","noRew","hexagon","S",181,0,"","",NA,NA,"",NA,1.6243379669977,"f",51,NA,"inlab","MacIntel",NA,NA,NA,NA
"161",28713,1,0,0,630,"switch","number","numSwt","noRew","triangle","D",167,0,"","",NA,NA,"",NA,0.9595479899981,"k",52,NA,"inlab","MacIntel",NA,NA,NA,NA
"162",28713,1,0,0,630,"repeat","number","numRpt","noRew","circle","F",125,0,"","",NA,NA,"",NA,1.05895831899761,"j",53,NA,"inlab","MacIntel",NA,NA,NA,NA
"163",28713,1,0,0,630,"repeat","number","numRpt","noRew","star","B",160,0,"","",NA,NA,"",NA,0.731440034000116,"k",54,NA,"inlab","MacIntel",NA,NA,NA,NA
"164",28713,1,0,0,630,"repeat","number","numRpt","noRew","circle","S",181,0,"","",NA,NA,"",NA,0.968506478999188,"k",55,NA,"inlab","MacIntel",NA,NA,NA,NA
"165",28713,1,0,0,630,"repeat","number","numRpt","noRew","hexagon","D",125,0,"","",NA,NA,"",NA,0.596194864996505,"j",56,NA,"inlab","MacIntel",NA,NA,NA,NA
"166",28713,1,0,0,630,"repeat","number","numRpt","noRew","triangle","U",174,0,"","",NA,NA,"",NA,1.27902098299819,"k",57,NA,"inlab","MacIntel",NA,NA,NA,NA
"167",28713,1,0,0,630,"switch","letter","lettSwt","noRew","circle","W",181,0,"","",NA,NA,"",NA,1.16672733899759,"f",58,NA,"inlab","MacIntel",NA,NA,NA,NA
"168",28713,1,0,0,630,"switch","number","numSwt","noRew","triangle","B",160,0,"","",NA,NA,"",NA,1.44945029799783,"k",59,NA,"inlab","MacIntel",NA,NA,NA,NA
"169",28713,1,0,0,630,"repeat","number","numRpt","noRew","circle","S",174,0,"","",NA,NA,"",NA,1.01836299199931,"k",60,NA,"inlab","MacIntel",NA,NA,NA,NA
"170",28713,1,0,0,630,"repeat","number","numRpt","noRew","hexagon","D",125,0,"","",NA,NA,"",NA,1.10748708099709,"j",61,NA,"inlab","MacIntel",NA,NA,NA,NA
"171",28713,1,0,0,630,"switch","letter","lettSwt","noRew","circle","B",181,0,"","",NA,NA,"",NA,0.744782048997877,"d",62,NA,"inlab","MacIntel",NA,NA,NA,NA
"172",28713,1,0,0,630,"repeat","letter","lettRpt","noRew","star","F",167,0,"","",NA,NA,"",NA,0.677170789997035,"d",63,NA,"inlab","MacIntel",NA,NA,NA,NA
"173",28713,1,0,0,630,"repeat","letter","lettRpt","noRew","triangle","W",160,0,"","",NA,NA,"",NA,1.65186809599618,"f",NA,0,"inlab","MacIntel",NA,NA,NA,NA
"174",28713,1,0,1,631,"switch","number","numSwt","noRew","hexagon","H",139,0,"","",NA,NA,"",NA,0.785428494997177,"j",NA,1,"inlab","MacIntel",NA,NA,NA,NA
"175",28713,1,0,10,641,"repeat","number","numRpt","noRew","triangle","B",181,0,"","",NA,NA,"",NA,0.750100015997305,"k",NA,2,"inlab","MacIntel",NA,NA,NA,NA
"176",28713,1,0,1,642,"repeat","number","numRpt","noRew","hexagon","Y",167,0,"","",NA,NA,"",NA,0.50575451399709,"k",NA,3,"inlab","MacIntel",NA,NA,NA,NA
"177",28713,1,0,1,643,"switch","letter","lettSwt","noRew","triangle","U",132,0,"","",NA,NA,"",NA,0.551287456000864,"f",NA,4,"inlab","MacIntel",NA,NA,NA,NA
"178",28713,1,0,1,644,"switch","number","numSwt","noRew","hexagon","S",146,0,"","",NA,NA,"",NA,1.38803680799901,"j",NA,5,"inlab","MacIntel",NA,NA,NA,NA
"179",28713,0,0,0,644,"repeat","number",NA,"noRew","hexagon","D",125,0,"","",NA,NA,"",NA,0.935301919995254,"k",NA,6,"inlab","MacIntel",NA,NA,NA,NA
"180",28713,1,1,0,644,"switch","letter","lettSwt","noRew","triangle","F",174,0,"","",NA,NA,"",NA,0.995089363997977,"d",NA,7,"inlab","MacIntel",NA,NA,NA,NA
"181",28713,1,0,1,645,"switch","number","numSwt","noRew","hexagon","W",160,0,"","",NA,NA,"",NA,0.550888405996375,"k",NA,8,"inlab","MacIntel",NA,NA,NA,NA
"182",28713,0,0,0,645,"switch","letter",NA,"noRew","triangle","H",139,0,"","",NA,NA,"",NA,0.898132259000704,"f",NA,9,"inlab","MacIntel",NA,NA,NA,NA
"183",28713,1,1,10,655,"repeat","letter","lettRpt","noRew","triangle","B",181,0,"","",NA,NA,"",NA,0.792668490998039,"d",NA,10,"inlab","MacIntel",NA,NA,NA,NA
"184",28713,1,0,10,665,"repeat","letter","lettRpt","noRew","hexagon","Y",167,0,"","",NA,NA,"",NA,0.972686792996683,"f",NA,11,"inlab","MacIntel",NA,NA,NA,NA
"185",28713,1,0,0,665,"repeat","letter","lettRpt","noRew","triangle","U",132,0,"","",NA,NA,"",NA,0.967630044000543,"f",NA,12,"inlab","MacIntel",NA,NA,NA,NA
"186",28713,1,0,10,675,"switch","number","numSwt","noRew","hexagon","S",146,0,"","",NA,NA,"",NA,0.755040279997047,"j",NA,13,"inlab","MacIntel",NA,NA,NA,NA
"187",28713,1,0,10,685,"repeat","number","numRpt","noRew","triangle","D",125,0,"","",NA,NA,"",NA,0.543009729997721,"j",NA,14,"inlab","MacIntel",NA,NA,NA,NA
"188",28713,1,0,1,686,"repeat","number","numRpt","noRew","hexagon","F",174,0,"","",NA,NA,"",NA,0.563837519999652,"k",NA,15,"inlab","MacIntel",NA,NA,NA,NA
"189",28713,1,0,1,687,"repeat","number","numRpt","noRew","hexagon","H",132,0,"","",NA,NA,"",NA,0.489751698998589,"j",NA,16,"inlab","MacIntel",NA,NA,NA,NA
"190",28713,1,0,10,697,"repeat","number","numRpt","noRew","triangle","U",139,0,"","",NA,NA,"",NA,0.478130025996506,"j",NA,17,"inlab","MacIntel",NA,NA,NA,NA
"191",28713,0,0,0,697,"switch","letter",NA,"noRew","triangle","F",167,0,"","",NA,NA,"",NA,1.03956564199689,"f",NA,18,"inlab","MacIntel",NA,NA,NA,NA
"192",28713,1,1,10,707,"repeat","letter","lettRpt","noRew","hexagon","D",181,0,"","",NA,NA,"",NA,0.679316626996297,"d",NA,19,"inlab","MacIntel",NA,NA,NA,NA
"193",28713,1,0,10,717,"switch","number","numSwt","noRew","hexagon","Y",160,0,"","",NA,NA,"",NA,0.806617997997819,"k",NA,20,"inlab","MacIntel",NA,NA,NA,NA
"194",28713,1,0,0,717,"repeat","number","numRpt","noRew","triangle","B",174,0,"","",NA,NA,"",NA,0.801603830997919,"k",NA,21,"inlab","MacIntel",NA,NA,NA,NA
"195",28713,1,0,10,727,"repeat","number","numRpt","noRew","triangle","W",146,0,"","",NA,NA,"",NA,0.602905411000393,"j",NA,22,"inlab","MacIntel",NA,NA,NA,NA
"196",28713,1,0,10,737,"repeat","number","numRpt","noRew","hexagon","S",125,0,"","",NA,NA,"",NA,0.509343603996967,"j",NA,23,"inlab","MacIntel",NA,NA,NA,NA
"197",28713,1,0,1,738,"repeat","number","numRpt","noRew","hexagon","D",132,0,"","",NA,NA,"",NA,0.755713836999348,"j",NA,24,"inlab","MacIntel",NA,NA,NA,NA
"198",28713,1,0,10,748,"repeat","number","numRpt","noRew","triangle","H",139,0,"","",NA,NA,"",NA,0.54295066999839,"j",NA,25,"inlab","MacIntel",NA,NA,NA,NA
"199",28713,1,0,1,749,"switch","letter","lettSwt","noRew","triangle","B",174,0,"","",NA,NA,"",NA,0.476657749997685,"d",NA,26,"inlab","MacIntel",NA,NA,NA,NA
"200",28713,1,0,10,759,"switch","number","numSwt","noRew","hexagon","W",167,0,"","",NA,NA,"",NA,0.692385436996119,"k",NA,27,"inlab","MacIntel",NA,NA,NA,NA
"201",28713,1,0,1,760,"repeat","number","numRpt","noRew","triangle","U",125,0,"","",NA,NA,"",NA,0.715992574998381,"j",NA,28,"inlab","MacIntel",NA,NA,NA,NA
"202",28713,1,0,1,761,"repeat","number","numRpt","noRew","hexagon","F",146,0,"","",NA,NA,"",NA,0.689950999996654,"j",NA,29,"inlab","MacIntel",NA,NA,NA,NA
"203",28713,1,0,1,762,"repeat","number","numRpt","noRew","triangle","Y",181,0,"","",NA,NA,"",NA,0.71914667299643,"k",NA,30,"inlab","MacIntel",NA,NA,NA,NA
"204",28713,1,0,1,763,"repeat","number","numRpt","noRew","hexagon","S",160,0,"","",NA,NA,"",NA,0.669506308000564,"k",NA,31,"inlab","MacIntel",NA,NA,NA,NA
"205",28713,1,0,10,773,"repeat","number","numRpt","noRew","hexagon","U",181,1,"","",NA,NA,"",NA,0.515027620996989,"k",NA,0,"inlab","MacIntel",NA,NA,NA,NA
"206",28713,1,0,10,783,"repeat","number","numRpt","noRew","triangle","D",139,1,"","",NA,NA,"",NA,0.527640718995826,"j",NA,1,"inlab","MacIntel",NA,NA,NA,NA
"207",28713,1,0,1,784,"repeat","number","numRpt","noRew","hexagon","S",160,1,"","",NA,NA,"",NA,0.646394809999038,"k",NA,2,"inlab","MacIntel",NA,NA,NA,NA
"208",28713,1,0,0,784,"switch","letter","lettSwt","noRew","triangle","W",146,1,"","",NA,NA,"",NA,0.656230099997629,"f",NA,3,"inlab","MacIntel",NA,NA,NA,NA
"209",28713,1,0,1,785,"repeat","letter","lettRpt","noRew","hexagon","B",167,1,"","",NA,NA,"",NA,0.568244396999944,"d",NA,4,"inlab","MacIntel",NA,NA,NA,NA
"210",28713,1,0,0,785,"switch","number","numSwt","noRew","triangle","F",174,1,"","",NA,NA,"",NA,0.746191757996712,"k",NA,5,"inlab","MacIntel",NA,NA,NA,NA
"211",28713,1,0,1,786,"repeat","number","numRpt","noRew","hexagon","H",125,1,"","",NA,NA,"",NA,0.631874012997287,"j",NA,6,"inlab","MacIntel",NA,NA,NA,NA
"212",28713,0,0,0,786,"repeat","number",NA,"noRew","triangle","Y",132,1,"","",NA,NA,"",NA,0.625774504998844,"k",NA,7,"inlab","MacIntel",NA,NA,NA,NA
"213",28713,1,1,10,796,"switch","letter","lettSwt","noRew","hexagon","U",181,1,"","",NA,NA,"",NA,0.667876321000222,"f",NA,8,"inlab","MacIntel",NA,NA,NA,NA
"214",28713,1,0,1,797,"repeat","letter","lettRpt","noRew","triangle","D",139,1,"","",NA,NA,"",NA,0.763346300995181,"d",NA,9,"inlab","MacIntel",NA,NA,NA,NA
"215",28713,1,0,1,798,"switch","number","numSwt","noRew","hexagon","S",160,1,"","",NA,NA,"",NA,0.439220782998746,"k",NA,10,"inlab","MacIntel",NA,NA,NA,NA
"216",28713,1,0,0,798,"repeat","number","numRpt","noRew","triangle","W",146,1,"","",NA,NA,"",NA,0.550935150997248,"j",NA,11,"inlab","MacIntel",NA,NA,NA,NA
"217",28713,1,0,0,798,"repeat","number","numRpt","noRew","triangle","B",167,1,"","",NA,NA,"",NA,0.611190547995648,"k",NA,12,"inlab","MacIntel",NA,NA,NA,NA
"218",28713,1,0,1,799,"repeat","number","numRpt","noRew","hexagon","F",174,1,"","",NA,NA,"",NA,0.510176573996432,"k",NA,13,"inlab","MacIntel",NA,NA,NA,NA
"219",28713,1,0,1,800,"repeat","number","numRpt","noRew","triangle","H",125,1,"","",NA,NA,"",NA,0.405395952995605,"j",NA,14,"inlab","MacIntel",NA,NA,NA,NA
"220",28713,0,0,0,800,"switch","letter",NA,"noRew","hexagon","Y",132,1,"","",NA,NA,"",NA,0.574823425995419,"d",NA,15,"inlab","MacIntel",NA,NA,NA,NA
"221",28713,1,1,1,801,"repeat","letter","lettRpt","noRew","hexagon","D",146,1,"","",NA,NA,"",NA,0.635191931996815,"d",NA,16,"inlab","MacIntel",NA,NA,NA,NA
"222",28713,1,0,10,811,"switch","number","numSwt","noRew","triangle","F",181,1,"","",NA,NA,"",NA,0.451140912999108,"k",NA,17,"inlab","MacIntel",NA,NA,NA,NA
"223",28713,1,0,10,821,"repeat","number","numRpt","noRew","triangle","H",160,1,"","",NA,NA,"",NA,0.428453248998267,"k",NA,18,"inlab","MacIntel",NA,NA,NA,NA
"224",28713,1,0,10,831,"repeat","number","numRpt","noRew","hexagon","Y",139,1,"","",NA,NA,"",NA,0.478164019998076,"j",NA,19,"inlab","MacIntel",NA,NA,NA,NA
"225",28713,1,0,10,841,"switch","letter","lettSwt","noRew","triangle","B",167,1,"","",NA,NA,"",NA,0.477358781998191,"d",NA,20,"inlab","MacIntel",NA,NA,NA,NA
"226",28713,1,0,10,851,"switch","number","numSwt","noRew","hexagon","U",174,1,"","",NA,NA,"",NA,0.43787194199831,"k",NA,21,"inlab","MacIntel",NA,NA,NA,NA
"227",28713,1,0,1,852,"repeat","number","numRpt","noRew","hexagon","W",125,1,"","",NA,NA,"",NA,0.57471878999786,"j",NA,22,"inlab","MacIntel",NA,NA,NA,NA
"228",28713,0,0,0,852,"switch","letter",NA,"noRew","triangle","S",132,1,"","",NA,NA,"",NA,0.777418089997809,"d",NA,23,"inlab","MacIntel",NA,NA,NA,NA
"229",28713,1,1,1,853,"switch","number","numSwt","noRew","hexagon","F",125,1,"","",NA,NA,"",NA,0.908811760997196,"j",NA,24,"inlab","MacIntel",NA,NA,NA,NA
"230",28713,1,0,0,853,"repeat","number","numRpt","noRew","triangle","B",139,1,"","",NA,NA,"",NA,0.667770196996571,"j",NA,25,"inlab","MacIntel",NA,NA,NA,NA
"231",28713,1,0,10,863,"repeat","number","numRpt","noRew","triangle","U",160,1,"","",NA,NA,"",NA,0.539214636995894,"k",NA,26,"inlab","MacIntel",NA,NA,NA,NA
"232",28713,1,0,1,864,"repeat","number","numRpt","noRew","hexagon","S",174,1,"","",NA,NA,"",NA,0.376052512998285,"k",NA,27,"inlab","MacIntel",NA,NA,NA,NA
"233",28713,1,0,10,874,"switch","letter","lettSwt","noRew","hexagon","Y",146,1,"","",NA,NA,"",NA,0.907296977999067,"f",NA,28,"inlab","MacIntel",NA,NA,NA,NA
"234",28713,1,0,10,884,"switch","number","numSwt","noRew","triangle","W",181,1,"","",NA,NA,"",NA,0.561142125996412,"k",NA,29,"inlab","MacIntel",NA,NA,NA,NA
"235",28713,1,0,1,885,"switch","letter","lettSwt","noRew","hexagon","D",167,1,"","",NA,NA,"",NA,0.629482070995437,"d",NA,30,"inlab","MacIntel",NA,NA,NA,NA
"236",28713,1,0,10,895,"switch","number","numSwt","noRew","triangle","H",132,1,"","",NA,NA,"",NA,0.623139270999673,"j",NA,31,"inlab","MacIntel",NA,NA,NA,NA
"237",28713,1,0,0,895,"repeat","number","numRpt","noRew","circle","B",160,2,"","",NA,NA,"",NA,0.517520829995192,"k",NA,0,"inlab","MacIntel",NA,NA,NA,NA
"238",28713,1,0,1,896,"repeat","number","numRpt","noRew","star","W",167,2,"","",NA,NA,"",NA,0.497924277999118,"k",NA,1,"inlab","MacIntel",NA,NA,NA,NA
"239",28713,1,0,0,896,"repeat","number","numRpt","noRew","circle","Y",146,2,"","",NA,NA,"",NA,0.60142661199643,"j",NA,2,"inlab","MacIntel",NA,NA,NA,NA
"240",28713,1,0,1,897,"repeat","number","numRpt","noRew","star","H",174,2,"","",NA,NA,"",NA,0.426684069996554,"k",NA,3,"inlab","MacIntel",NA,NA,NA,NA
"241",28713,1,0,1,898,"repeat","number","numRpt","noRew","star","U",181,2,"","",NA,NA,"",NA,0.460858658996585,"k",NA,4,"inlab","MacIntel",NA,NA,NA,NA
"242",28713,1,0,0,898,"repeat","number","numRpt","noRew","circle","D",125,2,"","",NA,NA,"",NA,0.62980271899869,"j",NA,5,"inlab","MacIntel",NA,NA,NA,NA
"243",28713,1,0,0,898,"repeat","number","numRpt","noRew","circle","S",132,2,"","",NA,NA,"",NA,0.694637155000237,"j",NA,6,"inlab","MacIntel",NA,NA,NA,NA
"244",28713,1,0,1,899,"repeat","number","numRpt","noRew","star","F",139,2,"","",NA,NA,"",NA,0.48478552299639,"j",NA,7,"inlab","MacIntel",NA,NA,NA,NA
"245",28713,1,0,1,900,"switch","letter","lettSwt","noRew","star","B",160,2,"","",NA,NA,"",NA,0.467857853996975,"d",NA,8,"inlab","MacIntel",NA,NA,NA,NA
"246",28713,1,0,10,910,"repeat","letter","lettRpt","noRew","circle","W",167,2,"","",NA,NA,"",NA,0.508395051998377,"f",NA,9,"inlab","MacIntel",NA,NA,NA,NA
"247",28713,0,0,0,910,"repeat","letter",NA,"noRew","circle","Y",146,2,"","",NA,NA,"",NA,0.786537445997965,"d",NA,10,"inlab","MacIntel",NA,NA,NA,NA
"248",28713,0,1,0,910,"repeat","letter",NA,"noRew","star","H",174,2,"","",NA,NA,"",NA,0.540914746994531,"f",NA,11,"inlab","MacIntel",NA,NA,NA,NA
"249",28713,1,1,1,911,"switch","number","numSwt","noRew","star","U",181,2,"","",NA,NA,"",NA,0.595131442998536,"k",NA,12,"inlab","MacIntel",NA,NA,NA,NA
"250",28713,1,0,10,921,"repeat","number","numRpt","noRew","circle","D",125,2,"","",NA,NA,"",NA,0.468510147995403,"j",NA,13,"inlab","MacIntel",NA,NA,NA,NA
"251",28713,1,0,10,931,"repeat","number","numRpt","noRew","circle","S",132,2,"","",NA,NA,"",NA,0.501556831997732,"j",NA,14,"inlab","MacIntel",NA,NA,NA,NA
"252",28713,1,0,1,932,"switch","letter","lettSwt","noRew","star","F",139,2,"","",NA,NA,"",NA,0.731631128997833,"d",NA,15,"inlab","MacIntel",NA,NA,NA,NA
"253",28713,1,0,0,932,"switch","number","numSwt","noRew","circle","D",160,2,"","",NA,NA,"",NA,0.544475602997409,"k",NA,16,"inlab","MacIntel",NA,NA,NA,NA
"254",28713,1,0,1,933,"repeat","number","numRpt","noRew","star","U",132,2,"","",NA,NA,"",NA,0.542127819997404,"j",NA,17,"inlab","MacIntel",NA,NA,NA,NA
"255",28713,1,0,1,934,"repeat","number","numRpt","noRew","star","Y",181,2,"","",NA,NA,"",NA,0.562849963996996,"k",NA,18,"inlab","MacIntel",NA,NA,NA,NA
"256",28713,1,0,0,934,"repeat","number","numRpt","noRew","circle","W",174,2,"","",NA,NA,"",NA,0.638768167998933,"k",NA,19,"inlab","MacIntel",NA,NA,NA,NA
"257",28713,1,0,10,944,"repeat","number","numRpt","noRew","star","H",139,2,"","",NA,NA,"",NA,0.535225710995292,"j",NA,20,"inlab","MacIntel",NA,NA,NA,NA
"258",28713,1,0,10,954,"repeat","number","numRpt","noRew","circle","B",146,2,"","",NA,NA,"",NA,0.436079795999831,"j",NA,21,"inlab","MacIntel",NA,NA,NA,NA
"259",28713,1,0,1,955,"repeat","number","numRpt","noRew","star","S",167,2,"","",NA,NA,"",NA,0.685918819996004,"k",NA,22,"inlab","MacIntel",NA,NA,NA,NA
"260",28713,1,0,0,955,"repeat","number","numRpt","noRew","circle","F",125,2,"","",NA,NA,"",NA,0.565817900998809,"j",NA,23,"inlab","MacIntel",NA,NA,NA,NA
"261",28713,1,0,10,965,"switch","letter","lettSwt","noRew","star","Y",181,2,"","",NA,NA,"",NA,0.67226460999882,"f",NA,24,"inlab","MacIntel",NA,NA,NA,NA
"262",28713,1,0,10,975,"repeat","letter","lettRpt","noRew","circle","W",146,2,"","",NA,NA,"",NA,0.608308810999006,"f",NA,25,"inlab","MacIntel",NA,NA,NA,NA
"263",28713,1,0,10,985,"repeat","letter","lettRpt","noRew","circle","D",174,2,"","",NA,NA,"",NA,0.562511444997654,"d",NA,26,"inlab","MacIntel",NA,NA,NA,NA
"264",28713,1,0,10,995,"repeat","letter","lettRpt","noRew","star","S",125,2,"","",NA,NA,"",NA,0.902951173000474,"f",NA,27,"inlab","MacIntel",NA,NA,NA,NA
"265",28713,1,0,0,995,"switch","number","numSwt","noRew","circle","U",132,2,"","",NA,NA,"",NA,0.588656258998526,"j",NA,28,"inlab","MacIntel",NA,NA,NA,NA
"266",28713,0,0,0,995,"repeat","number",NA,"noRew","star","B",160,2,"","",NA,NA,"",NA,0.704193747995305,"j",NA,29,"inlab","MacIntel",NA,NA,NA,NA
"267",28713,1,1,10,1005,"repeat","number","numRpt","noRew","circle","H",167,2,"","",NA,NA,"",NA,0.486240785998234,"k",NA,30,"inlab","MacIntel",NA,NA,NA,NA
"268",28713,1,0,1,1006,"repeat","number","numRpt","noRew","star","F",139,2,"","",NA,NA,"",NA,0.508999604997371,"j",NA,31,"inlab","MacIntel",NA,NA,NA,NA
"269",28713,1,0,0,1006,"repeat","number","numRpt","noRew","triangle","Y",125,3,"","",NA,NA,"",NA,0.728287947000354,"j",NA,0,"inlab","MacIntel",NA,NA,NA,NA
"270",28713,0,0,0,1006,"repeat","number",NA,"noRew","hexagon","B",174,3,"","",NA,NA,"",NA,0.468456756996602,"j",NA,1,"inlab","MacIntel",NA,NA,NA,NA
"271",28713,1,1,0,1006,"switch","letter","lettSwt","noRew","triangle","D",181,3,"","",NA,NA,"",NA,0.868781063996721,"d",NA,2,"inlab","MacIntel",NA,NA,NA,NA
"272",28713,1,0,10,1016,"switch","number","numSwt","noRew","hexagon","F",146,3,"","",NA,NA,"",NA,0.540552832997491,"j",NA,3,"inlab","MacIntel",NA,NA,NA,NA
"273",28713,0,0,0,1016,"repeat","number",NA,"noRew","triangle","H",160,3,"","",NA,NA,"",NA,0.505376976998377,"j",NA,4,"inlab","MacIntel",NA,NA,NA,NA
"274",28713,1,1,10,1026,"repeat","number","numRpt","noRew","hexagon","U",139,3,"","",NA,NA,"",NA,0.751933528998052,"j",NA,5,"inlab","MacIntel",NA,NA,NA,NA
"275",28713,0,0,0,1026,"repeat","number",NA,"noRew","triangle","S",132,3,"","",NA,NA,"",NA,0.531439804999536,"k",NA,6,"inlab","MacIntel",NA,NA,NA,NA
"276",28713,1,1,10,1036,"repeat","number","numRpt","noRew","hexagon","W",167,3,"","",NA,NA,"",NA,0.738096453998878,"k",NA,7,"inlab","MacIntel",NA,NA,NA,NA
"277",28713,0,0,0,1036,"switch","letter",NA,"noRew","hexagon","Y",125,3,"","",NA,NA,"",NA,0.598073337998358,"d",NA,8,"inlab","MacIntel",NA,NA,NA,NA
"278",28713,1,1,0,1036,"repeat","letter","lettRpt","noRew","triangle","B",174,3,"","",NA,NA,"",NA,2.42483343299682,"d",NA,9,"inlab","MacIntel",NA,NA,NA,NA
"279",28713,1,0,1,1037,"switch","number","numSwt","noRew","hexagon","D",181,3,"","",NA,NA,"",NA,0.729464592997829,"k",NA,10,"inlab","MacIntel",NA,NA,NA,NA
"280",28713,1,0,0,1037,"switch","letter","lettSwt","noRew","triangle","F",146,3,"","",NA,NA,"",NA,1.50975692399516,"d",NA,11,"inlab","MacIntel",NA,NA,NA,NA
"281",28713,1,0,1,1038,"repeat","letter","lettRpt","noRew","hexagon","H",160,3,"","",NA,NA,"",NA,1.24265514099898,"d",NA,12,"inlab","MacIntel",NA,NA,NA,NA
"282",28713,1,0,0,1038,"repeat","letter","lettRpt","noRew","triangle","U",139,3,"","",NA,NA,"",NA,0.572861403998104,"f",NA,13,"inlab","MacIntel",NA,NA,NA,NA
"283",28713,1,0,0,1038,"switch","number","numSwt","noRew","triangle","S",132,3,"","",NA,NA,"",NA,1.10242550699695,"j",NA,14,"inlab","MacIntel",NA,NA,NA,NA
"284",28713,1,0,1,1039,"switch","letter","lettSwt","noRew","hexagon","W",167,3,"","",NA,NA,"",NA,0.52499025099678,"f",NA,15,"inlab","MacIntel",NA,NA,NA,NA
"285",28713,1,0,10,1049,"switch","number","numSwt","noRew","hexagon","U",125,3,"","",NA,NA,"",NA,0.57090236899603,"j",NA,16,"inlab","MacIntel",NA,NA,NA,NA
"286",28713,0,0,0,1049,"repeat","number",NA,"noRew","triangle","D",160,3,"","",NA,NA,"",NA,0.509514891000435,"j",NA,17,"inlab","MacIntel",NA,NA,NA,NA
"287",28713,1,1,1,1050,"repeat","number","numRpt","noRew","hexagon","F",174,3,"","",NA,NA,"",NA,0.460155759996269,"k",NA,18,"inlab","MacIntel",NA,NA,NA,NA
"288",28713,1,0,10,1060,"repeat","number","numRpt","noRew","triangle","W",181,3,"","",NA,NA,"",NA,0.485470076997444,"k",NA,19,"inlab","MacIntel",NA,NA,NA,NA
"289",28713,1,0,0,1060,"repeat","number","numRpt","noRew","triangle","S",146,3,"","",NA,NA,"",NA,0.701026061997254,"j",NA,20,"inlab","MacIntel",NA,NA,NA,NA
"290",28713,1,0,10,1070,"repeat","number","numRpt","noRew","hexagon","H",139,3,"","",NA,NA,"",NA,0.546536964997358,"j",NA,21,"inlab","MacIntel",NA,NA,NA,NA
"291",28713,1,0,10,1080,"repeat","number","numRpt","noRew","triangle","B",167,3,"","",NA,NA,"",NA,0.48858806199496,"k",NA,22,"inlab","MacIntel",NA,NA,NA,NA
"292",28713,1,0,1,1081,"repeat","number","numRpt","noRew","hexagon","Y",132,3,"","",NA,NA,"",NA,0.599390893996315,"j",NA,23,"inlab","MacIntel",NA,NA,NA,NA
"293",28713,1,0,1,1082,"repeat","number","numRpt","noRew","hexagon","B",181,3,"","",NA,NA,"",NA,0.521932500996627,"k",NA,24,"inlab","MacIntel",NA,NA,NA,NA
"294",28713,1,0,0,1082,"repeat","number","numRpt","noRew","triangle","H",160,3,"","",NA,NA,"",NA,0.623152629999822,"k",NA,25,"inlab","MacIntel",NA,NA,NA,NA
"295",28713,1,0,10,1092,"repeat","number","numRpt","noRew","hexagon","U",125,3,"","",NA,NA,"",NA,0.681006620998232,"j",NA,26,"inlab","MacIntel",NA,NA,NA,NA
"296",28713,0,0,0,1092,"repeat","number",NA,"noRew","triangle","S",174,3,"","",NA,NA,"",NA,0.52051334999851,"j",NA,27,"inlab","MacIntel",NA,NA,NA,NA
"297",28713,1,1,0,1092,"repeat","number","numRpt","noRew","triangle","F",139,3,"","",NA,NA,"",NA,0.567653342997801,"j",NA,28,"inlab","MacIntel",NA,NA,NA,NA
"298",28713,1,0,10,1102,"repeat","number","numRpt","noRew","hexagon","Y",132,3,"","",NA,NA,"",NA,1.25159088099826,"j",NA,29,"inlab","MacIntel",NA,NA,NA,NA
"299",28713,1,0,1,1103,"repeat","number","numRpt","noRew","hexagon","D",146,3,"","",NA,NA,"",NA,1.11484527099674,"j",NA,30,"inlab","MacIntel",NA,NA,NA,NA
"300",28713,1,0,0,1103,"switch","letter","lettSwt","noRew","triangle","W",167,3,"","",NA,NA,"",NA,0.735429802996805,"f",NA,31,"inlab","MacIntel",NA,NA,NA,NA
"301",28713,1,0,10,1113,"repeat","letter","lettRpt","noRew","circle","B",174,4,"","",NA,NA,"",NA,0.571330233997287,"d",NA,0,"inlab","MacIntel",NA,NA,NA,NA
"302",28713,1,0,1,1114,"repeat","letter","lettRpt","noRew","star","D",160,4,"","",NA,NA,"",NA,0.471846845997788,"d",NA,1,"inlab","MacIntel",NA,NA,NA,NA
"303",28713,1,0,10,1124,"repeat","letter","lettRpt","noRew","circle","S",132,4,"","",NA,NA,"",NA,0.51048416499907,"f",NA,2,"inlab","MacIntel",NA,NA,NA,NA
"304",28713,1,0,1,1125,"repeat","letter","lettRpt","noRew","star","H",167,4,"","",NA,NA,"",NA,0.668041300999903,"d",NA,3,"inlab","MacIntel",NA,NA,NA,NA
"305",28713,1,0,1,1126,"switch","number","numSwt","noRew","star","Y",125,4,"","",NA,NA,"",NA,0.452505102995929,"j",NA,4,"inlab","MacIntel",NA,NA,NA,NA
"306",28713,1,0,10,1136,"switch","letter","lettSwt","noRew","circle","W",181,4,"","",NA,NA,"",NA,0.550738913996611,"f",NA,5,"inlab","MacIntel",NA,NA,NA,NA
"307",28713,1,0,1,1137,"repeat","letter","lettRpt","noRew","star","U",146,4,"","",NA,NA,"",NA,0.658279860996117,"f",NA,6,"inlab","MacIntel",NA,NA,NA,NA
"308",28713,1,0,0,1137,"switch","number","numSwt","noRew","circle","F",139,4,"","",NA,NA,"",NA,0.993036865998874,"j",NA,7,"inlab","MacIntel",NA,NA,NA,NA
"309",28713,1,0,1,1138,"switch","letter","lettSwt","noRew","star","B",174,4,"","",NA,NA,"",NA,0.54888362299971,"d",NA,8,"inlab","MacIntel",NA,NA,NA,NA
"310",28713,1,0,10,1148,"switch","number","numSwt","noRew","circle","D",160,4,"","",NA,NA,"",NA,0.536619664995669,"k",NA,9,"inlab","MacIntel",NA,NA,NA,NA
"311",28713,1,0,1,1149,"switch","letter","lettSwt","noRew","star","S",132,4,"","",NA,NA,"",NA,0.870061457997508,"f",NA,10,"inlab","MacIntel",NA,NA,NA,NA
"312",28713,1,0,10,1159,"switch","number","numSwt","noRew","circle","H",167,4,"","",NA,NA,"",NA,0.445629885998642,"k",NA,11,"inlab","MacIntel",NA,NA,NA,NA
"313",28713,1,0,10,1169,"repeat","number","numRpt","noRew","circle","Y",125,4,"","",NA,NA,"",NA,0.439507613995374,"j",NA,12,"inlab","MacIntel",NA,NA,NA,NA
"314",28713,1,0,1,1170,"switch","letter","lettSwt","noRew","star","W",181,4,"","",NA,NA,"",NA,0.617332910995174,"f",NA,13,"inlab","MacIntel",NA,NA,NA,NA
"315",28713,1,0,0,1170,"switch","number","numSwt","noRew","circle","U",146,4,"","",NA,NA,"",NA,0.802064695995796,"j",NA,14,"inlab","MacIntel",NA,NA,NA,NA
"316",28713,1,0,1,1171,"repeat","number","numRpt","noRew","star","F",139,4,"","",NA,NA,"",NA,0.692114145997039,"j",NA,15,"inlab","MacIntel",NA,NA,NA,NA
"317",28713,1,0,10,1181,"repeat","number","numRpt","noRew","star","W",132,4,"","",NA,NA,"",NA,0.587581682997552,"j",NA,16,"inlab","MacIntel",NA,NA,NA,NA
"318",28713,1,0,1,1182,"repeat","number","numRpt","noRew","circle","H",181,4,"","",NA,NA,"",NA,0.517796809999709,"k",NA,17,"inlab","MacIntel",NA,NA,NA,NA
"319",28713,1,0,1,1183,"switch","letter","lettSwt","noRew","star","S",146,4,"","",NA,NA,"",NA,0.78652872100065,"f",NA,18,"inlab","MacIntel",NA,NA,NA,NA
"320",28713,1,0,10,1193,"switch","number","numSwt","noRew","circle","B",160,4,"","",NA,NA,"",NA,0.541931938998459,"k",NA,19,"inlab","MacIntel",NA,NA,NA,NA
"321",28713,1,0,1,1194,"repeat","number","numRpt","noRew","star","D",125,4,"","",NA,NA,"",NA,0.47471250399758,"j",NA,20,"inlab","MacIntel",NA,NA,NA,NA
"322",28713,1,0,10,1204,"repeat","number","numRpt","noRew","circle","Y",174,4,"","",NA,NA,"",NA,0.500139893996675,"k",NA,21,"inlab","MacIntel",NA,NA,NA,NA
"323",28713,1,0,1,1205,"repeat","number","numRpt","noRew","star","F",139,4,"","",NA,NA,"",NA,0.522329547999107,"j",NA,22,"inlab","MacIntel",NA,NA,NA,NA
"324",28713,1,0,0,1205,"repeat","number","numRpt","noRew","circle","U",167,4,"","",NA,NA,"",NA,0.66393959299603,"k",NA,23,"inlab","MacIntel",NA,NA,NA,NA
"325",28713,1,0,1,1206,"repeat","number","numRpt","noRew","star","H",125,4,"","",NA,NA,"",NA,0.527627601997665,"j",NA,24,"inlab","MacIntel",NA,NA,NA,NA
"326",28713,1,0,0,1206,"repeat","number","numRpt","noRew","circle","S",174,4,"","",NA,NA,"",NA,0.613546394997684,"k",NA,25,"inlab","MacIntel",NA,NA,NA,NA
"327",28713,1,0,10,1216,"repeat","number","numRpt","noRew","circle","B",146,4,"","",NA,NA,"",NA,0.543157542997506,"j",NA,26,"inlab","MacIntel",NA,NA,NA,NA
"328",28713,1,0,10,1226,"switch","letter","lettSwt","noRew","star","D",160,4,"","",NA,NA,"",NA,0.508372573996894,"d",NA,27,"inlab","MacIntel",NA,NA,NA,NA
"329",28713,0,0,0,1226,"repeat","letter",NA,"noRew","circle","U",139,4,"","",NA,NA,"",NA,0.53924459499467,"d",NA,28,"inlab","MacIntel",NA,NA,NA,NA
"330",28713,1,1,1,1227,"repeat","letter","lettRpt","noRew","star","Y",167,4,"","",NA,NA,"",NA,0.455979751997802,"f",NA,29,"inlab","MacIntel",NA,NA,NA,NA
"331",28713,1,0,1,1228,"switch","number","numSwt","noRew","star","W",132,4,"","",NA,NA,"",NA,0.689410475995828,"j",NA,30,"inlab","MacIntel",NA,NA,NA,NA
"332",28713,1,0,0,1228,"repeat","number","numRpt","noRew","circle","F",181,4,"","",NA,NA,"",NA,0.886301655998977,"k",NA,31,"inlab","MacIntel",NA,NA,NA,NA
"333",28713,1,0,1,1229,"repeat","number","numRpt","noRew","star","F",167,5,"","",NA,NA,"",NA,0.69653490500059,"k",NA,0,"inlab","MacIntel",NA,NA,NA,NA
"334",28713,1,0,10,1239,"repeat","number","numRpt","noRew","circle","W",181,5,"","",NA,NA,"",NA,0.447337822995905,"k",NA,1,"inlab","MacIntel",NA,NA,NA,NA
"335",28713,1,0,10,1249,"repeat","number","numRpt","noRew","circle","S",174,5,"","",NA,NA,"",NA,0.38499866499842,"k",NA,2,"inlab","MacIntel",NA,NA,NA,NA
"336",28713,1,0,1,1250,"repeat","number","numRpt","noRew","star","D",132,5,"","",NA,NA,"",NA,0.59621225400042,"j",NA,3,"inlab","MacIntel",NA,NA,NA,NA
"337",28713,1,0,10,1260,"repeat","number","numRpt","noRew","star","H",139,5,"","",NA,NA,"",NA,0.590110198998445,"j",NA,4,"inlab","MacIntel",NA,NA,NA,NA
"338",28713,0,0,0,1260,"repeat","number",NA,"noRew","circle","Y",125,5,"","",NA,NA,"",NA,0.497865207998984,"k",NA,5,"inlab","MacIntel",NA,NA,NA,NA
"339",28713,1,1,0,1260,"repeat","number","numRpt","noRew","circle","U",146,5,"","",NA,NA,"",NA,0.544730442998116,"j",NA,6,"inlab","MacIntel",NA,NA,NA,NA
"340",28713,1,0,1,1261,"switch","letter","lettSwt","noRew","star","B",160,5,"","",NA,NA,"",NA,0.629406190997543,"d",NA,7,"inlab","MacIntel",NA,NA,NA,NA
"341",28713,1,0,10,1271,"switch","number","numSwt","noRew","circle","F",167,5,"","",NA,NA,"",NA,0.406899363999401,"k",NA,8,"inlab","MacIntel",NA,NA,NA,NA
"342",28713,1,0,1,1272,"switch","letter","lettSwt","noRew","star","W",181,5,"","",NA,NA,"",NA,0.794124807998742,"f",NA,9,"inlab","MacIntel",NA,NA,NA,NA
"343",28713,1,0,1,1273,"switch","number","numSwt","noRew","star","S",174,5,"","",NA,NA,"",NA,0.796038140000746,"k",NA,10,"inlab","MacIntel",NA,NA,NA,NA
"344",28713,1,0,10,1283,"repeat","number","numRpt","noRew","circle","D",132,5,"","",NA,NA,"",NA,0.415435603998048,"j",NA,11,"inlab","MacIntel",NA,NA,NA,NA
"345",28713,1,0,0,1283,"repeat","number","numRpt","noRew","circle","H",139,5,"","",NA,NA,"",NA,0.672767248997843,"j",NA,12,"inlab","MacIntel",NA,NA,NA,NA
"346",28713,1,0,1,1284,"repeat","number","numRpt","noRew","star","Y",125,5,"","",NA,NA,"",NA,0.688858276997053,"j",NA,13,"inlab","MacIntel",NA,NA,NA,NA
"347",28713,1,0,1,1285,"switch","letter","lettSwt","noRew","star","U",146,5,"","",NA,NA,"",NA,0.6074319679974,"f",NA,14,"inlab","MacIntel",NA,NA,NA,NA
"348",28713,1,0,0,1285,"switch","number","numSwt","noRew","circle","B",160,5,"","",NA,NA,"",NA,0.689243954995618,"k",NA,15,"inlab","MacIntel",NA,NA,NA,NA
"349",28713,1,0,1,1286,"repeat","number","numRpt","noRew","star","S",167,5,"","",NA,NA,"",NA,1.08034657499593,"k",NA,16,"inlab","MacIntel",NA,NA,NA,NA
"350",28713,1,0,0,1286,"repeat","number","numRpt","noRew","circle","B",125,5,"","",NA,NA,"",NA,0.608289667998179,"j",NA,17,"inlab","MacIntel",NA,NA,NA,NA
"351",28713,1,0,1,1287,"repeat","number","numRpt","noRew","circle","W",181,5,"","",NA,NA,"",NA,0.514691769996716,"k",NA,18,"inlab","MacIntel",NA,NA,NA,NA
"352",28713,1,0,10,1297,"repeat","number","numRpt","noRew","star","D",139,5,"","",NA,NA,"",NA,0.617627206996985,"j",NA,19,"inlab","MacIntel",NA,NA,NA,NA
"353",28713,0,0,0,1297,"repeat","number",NA,"noRew","circle","U",160,5,"","",NA,NA,"",NA,0.555873665998661,"j",NA,20,"inlab","MacIntel",NA,NA,NA,NA
"354",28713,1,1,1,1298,"repeat","number","numRpt","noRew","star","H",132,5,"","",NA,NA,"",NA,0.663081741997303,"j",NA,21,"inlab","MacIntel",NA,NA,NA,NA
"355",28713,1,0,10,1308,"repeat","number","numRpt","noRew","circle","F",174,5,"","",NA,NA,"",NA,0.519456210997305,"k",NA,22,"inlab","MacIntel",NA,NA,NA,NA
"356",28713,1,0,1,1309,"repeat","number","numRpt","noRew","star","Y",146,5,"","",NA,NA,"",NA,0.54040437799631,"j",NA,23,"inlab","MacIntel",NA,NA,NA,NA
"357",28713,1,0,0,1309,"repeat","number","numRpt","noRew","circle","S",125,5,"","",NA,NA,"",NA,1.09815703799904,"j",NA,24,"inlab","MacIntel",NA,NA,NA,NA
"358",28713,1,0,1,1310,"repeat","number","numRpt","noRew","star","Y",146,5,"","",NA,NA,"",NA,0.688797979997616,"j",NA,25,"inlab","MacIntel",NA,NA,NA,NA
"359",28713,1,0,10,1320,"switch","letter","lettSwt","noRew","star","D",139,5,"","",NA,NA,"",NA,0.839649813999131,"d",NA,26,"inlab","MacIntel",NA,NA,NA,NA
"360",28713,0,0,0,1320,"switch","number",NA,"noRew","circle","F",160,5,"","",NA,NA,"",NA,0.672779137999896,"j",NA,27,"inlab","MacIntel",NA,NA,NA,NA
"361",28713,1,1,10,1330,"repeat","number","numRpt","noRew","circle","W",174,5,"","",NA,NA,"",NA,0.431293527995877,"k",NA,28,"inlab","MacIntel",NA,NA,NA,NA
"362",28713,1,0,1,1331,"repeat","number","numRpt","noRew","star","U",181,5,"","",NA,NA,"",NA,0.865145307998318,"k",NA,29,"inlab","MacIntel",NA,NA,NA,NA
"363",28713,1,0,0,1331,"repeat","number","numRpt","noRew","circle","B",132,5,"","",NA,NA,"",NA,0.744855547996849,"j",NA,30,"inlab","MacIntel",NA,NA,NA,NA
"364",28713,1,0,1,1332,"repeat","number","numRpt","noRew","star","H",167,5,"","",NA,NA,"",NA,0.677356068998051,"k",NA,31,"inlab","MacIntel",NA,NA,NA,NA
