"","participant","acc","E1","points_trial","points_cumul","alt","task","condition","rewExpect","rewCond","curr_shape","curr_topStim","curr_bottStim","blockNum","LShape_ID","RShape_ID","trainBlock","training.thisN","training_resp.keys","training_resp.rt","target_resp.rt","target_resp.keys","trials_norew.thisRepN","trials_rew.thisRepN","platform","OS","browser","xResolution","yResolution"
"1",36290,NA,NA,1,1,"","","training","","","",NA,"",NA,"triangle","circle",0,0,"l",1.07215251100206,NA,"",NA,NA,"inlab","MacIntel",NA,NA,NA
"2",36290,NA,NA,1,2,"","","training","","","",NA,"",NA,"triangle","hexagon",0,1,"l",9.74438543800352,NA,"",NA,NA,"inlab","MacIntel",NA,NA,NA
"3",36290,NA,NA,10,12,"","","training","","","",NA,"",NA,"circle","triangle",0,2,"l",0.981434025001363,NA,"",NA,NA,"inlab","MacIntel",NA,NA,NA
"4",36290,NA,NA,10,22,"","","training","","","",NA,"",NA,"hexagon","star",0,3,"a",1.45156741600294,NA,"",NA,NA,"inlab","MacIntel",NA,NA,NA
"5",36290,NA,NA,1,23,"","","training","","","",NA,"",NA,"circle","star",0,4,"l",1.43593198300005,NA,"",NA,NA,"inlab","MacIntel",NA,NA,NA
"6",36290,NA,NA,1,24,"","","training","","","",NA,"",NA,"hexagon","circle",0,5,"a",1.72704393599997,NA,"",NA,NA,"inlab","MacIntel",NA,NA,NA
"7",36290,NA,NA,10,34,"","","training","","","",NA,"",NA,"hexagon","triangle",0,6,"l",1.64421575900269,NA,"",NA,NA,"inlab","MacIntel",NA,NA,NA
"8",36290,NA,NA,1,35,"","","training","","","",NA,"",NA,"triangle","star",0,7,"a",1.19989497400093,NA,"",NA,NA,"inlab","MacIntel",NA,NA,NA
"9",36290,NA,NA,10,45,"","","training","","","",NA,"",NA,"star","circle",0,8,"l",1.59585074100323,NA,"",NA,NA,"inlab","MacIntel",NA,NA,NA
"10",36290,NA,NA,10,55,"","","training","","","",NA,"",NA,"circle","hexagon",0,9,"l",1.73604477600384,NA,"",NA,NA,"inlab","MacIntel",NA,NA,NA
"11",36290,NA,NA,1,56,"","","training","","","",NA,"",NA,"star","triangle",0,10,"a",2.66157304800436,NA,"",NA,NA,"inlab","MacIntel",NA,NA,NA
"12",36290,NA,NA,10,66,"","","training","","","",NA,"",NA,"star","hexagon",0,11,"l",1.37383858500107,NA,"",NA,NA,"inlab","MacIntel",NA,NA,NA
"13",36290,NA,NA,1,67,"","","training","","","",NA,"",NA,"hexagon","star",0,12,"a",1.11497862500619,NA,"",NA,NA,"inlab","MacIntel",NA,NA,NA
"14",36290,NA,NA,10,77,"","","training","","","",NA,"",NA,"triangle","hexagon",0,13,"a",1.21890843400251,NA,"",NA,NA,"inlab","MacIntel",NA,NA,NA
"15",36290,NA,NA,1,78,"","","training","","","",NA,"",NA,"hexagon","triangle",0,14,"a",2.89422944300168,NA,"",NA,NA,"inlab","MacIntel",NA,NA,NA
"16",36290,NA,NA,10,88,"","","training","","","",NA,"",NA,"triangle","circle",0,15,"a",0.907842770004208,NA,"",NA,NA,"inlab","MacIntel",NA,NA,NA
"17",36290,NA,NA,10,98,"","","training","","","",NA,"",NA,"triangle","star",0,16,"l",0.64494733200263,NA,"",NA,NA,"inlab","MacIntel",NA,NA,NA
"18",36290,NA,NA,1,99,"","","training","","","",NA,"",NA,"star","triangle",0,17,"a",1.82382236500416,NA,"",NA,NA,"inlab","MacIntel",NA,NA,NA
"19",36290,NA,NA,1,100,"","","training","","","",NA,"",NA,"circle","triangle",0,18,"l",0.937431443002424,NA,"",NA,NA,"inlab","MacIntel",NA,NA,NA
"20",36290,NA,NA,10,110,"","","training","","","",NA,"",NA,"circle","star",0,19,"l",1.86385173500457,NA,"",NA,NA,"inlab","MacIntel",NA,NA,NA
"21",36290,NA,NA,1,111,"","","training","","","",NA,"",NA,"star","hexagon",0,20,"l",1.54570100400451,NA,"",NA,NA,"inlab","MacIntel",NA,NA,NA
"22",36290,NA,NA,1,112,"","","training","","","",NA,"",NA,"hexagon","circle",0,21,"a",1.37492299000223,NA,"",NA,NA,"inlab","MacIntel",NA,NA,NA
"23",36290,NA,NA,1,113,"","","training","","","",NA,"",NA,"star","circle",0,22,"l",1.92511582100269,NA,"",NA,NA,"inlab","MacIntel",NA,NA,NA
"24",36290,NA,NA,1,114,"","","training","","","",NA,"",NA,"circle","hexagon",0,23,"a",3.15435062600591,NA,"",NA,NA,"inlab","MacIntel",NA,NA,NA
"25",36290,NA,NA,1,115,"","","training","","","",NA,"",NA,"circle","hexagon",0,24,"a",5.06205681700158,NA,"",NA,NA,"inlab","MacIntel",NA,NA,NA
"26",36290,NA,NA,10,125,"","","training","","","",NA,"",NA,"hexagon","star",0,25,"l",1.20404625100127,NA,"",NA,NA,"inlab","MacIntel",NA,NA,NA
"27",36290,NA,NA,1,126,"","","training","","","",NA,"",NA,"hexagon","circle",0,26,"l",3.46339721800541,NA,"",NA,NA,"inlab","MacIntel",NA,NA,NA
"28",36290,NA,NA,10,136,"","","training","","","",NA,"",NA,"triangle","circle",0,27,"a",0.758815729001071,NA,"",NA,NA,"inlab","MacIntel",NA,NA,NA
"29",36290,NA,NA,10,146,"","","training","","","",NA,"",NA,"star","triangle",0,28,"l",1.66176778299996,NA,"",NA,NA,"inlab","MacIntel",NA,NA,NA
"30",36290,NA,NA,1,147,"","","training","","","",NA,"",NA,"circle","star",0,29,"l",0.702776819001883,NA,"",NA,NA,"inlab","MacIntel",NA,NA,NA
"31",36290,NA,NA,10,157,"","","training","","","",NA,"",NA,"triangle","hexagon",0,30,"a",0.784066207004798,NA,"",NA,NA,"inlab","MacIntel",NA,NA,NA
"32",36290,NA,NA,1,158,"","","training","","","",NA,"",NA,"star","circle",0,31,"l",2.20465088600395,NA,"",NA,NA,"inlab","MacIntel",NA,NA,NA
"33",36290,NA,NA,10,168,"","","training","","","",NA,"",NA,"hexagon","triangle",0,32,"l",0.902631246004603,NA,"",NA,NA,"inlab","MacIntel",NA,NA,NA
"34",36290,NA,NA,10,178,"","","training","","","",NA,"",NA,"star","hexagon",0,33,"l",1.69529820100433,NA,"",NA,NA,"inlab","MacIntel",NA,NA,NA
"35",36290,NA,NA,1,179,"","","training","","","",NA,"",NA,"circle","triangle",0,34,"l",1.54383262100237,NA,"",NA,NA,"inlab","MacIntel",NA,NA,NA
"36",36290,NA,NA,10,189,"","","training","","","",NA,"",NA,"triangle","star",0,35,"a",1.68632374100343,NA,"",NA,NA,"inlab","MacIntel",NA,NA,NA
"37",36290,NA,NA,10,199,"","","training","","","",NA,"",NA,"circle","triangle",1,0,"l",0.663548425000045,NA,"",NA,NA,"inlab","MacIntel",NA,NA,NA
"38",36290,NA,NA,1,200,"","","training","","","",NA,"",NA,"triangle","star",1,1,"a",2.34680858100546,NA,"",NA,NA,"inlab","MacIntel",NA,NA,NA
"39",36290,NA,NA,10,210,"","","training","","","",NA,"",NA,"circle","star",1,2,"l",3.33647971200116,NA,"",NA,NA,"inlab","MacIntel",NA,NA,NA
"40",36290,NA,NA,10,220,"","","training","","","",NA,"",NA,"triangle","hexagon",1,3,"a",2.0858391820002,NA,"",NA,NA,"inlab","MacIntel",NA,NA,NA
"41",36290,NA,NA,1,221,"","","training","","","",NA,"",NA,"hexagon","star",1,4,"l",2.42804804700427,NA,"",NA,NA,"inlab","MacIntel",NA,NA,NA
"42",36290,NA,NA,10,231,"","","training","","","",NA,"",NA,"star","triangle",1,5,"l",0.709519110001565,NA,"",NA,NA,"inlab","MacIntel",NA,NA,NA
"43",36290,NA,NA,10,241,"","","training","","","",NA,"",NA,"star","circle",1,6,"a",2.52691545900234,NA,"",NA,NA,"inlab","MacIntel",NA,NA,NA
"44",36290,NA,NA,1,242,"","","training","","","",NA,"",NA,"hexagon","circle",1,7,"a",2.37130309300483,NA,"",NA,NA,"inlab","MacIntel",NA,NA,NA
"45",36290,NA,NA,1,243,"","","training","","","",NA,"",NA,"star","hexagon",1,8,"l",5.66349778700169,NA,"",NA,NA,"inlab","MacIntel",NA,NA,NA
"46",36290,NA,NA,10,253,"","","training","","","",NA,"",NA,"hexagon","triangle",1,9,"l",0.613249238002027,NA,"",NA,NA,"inlab","MacIntel",NA,NA,NA
"47",36290,NA,NA,10,263,"","","training","","","",NA,"",NA,"circle","hexagon",1,10,"a",1.40959359000044,NA,"",NA,NA,"inlab","MacIntel",NA,NA,NA
"48",36290,NA,NA,10,273,"","","training","","","",NA,"",NA,"triangle","circle",1,11,"a",1.08538751700326,NA,"",NA,NA,"inlab","MacIntel",NA,NA,NA
"49",36290,NA,NA,10,283,"","","training","","","",NA,"",NA,"star","triangle",1,12,"l",2.77285910900173,NA,"",NA,NA,"inlab","MacIntel",NA,NA,NA
"50",36290,NA,NA,1,284,"","","training","","","",NA,"",NA,"hexagon","triangle",1,13,"l",1.44165811800121,NA,"",NA,NA,"inlab","MacIntel",NA,NA,NA
"51",36290,NA,NA,10,294,"","","training","","","",NA,"",NA,"triangle","star",1,14,"a",3.10725842900501,NA,"",NA,NA,"inlab","MacIntel",NA,NA,NA
"52",36290,NA,NA,1,295,"","","training","","","",NA,"",NA,"circle","hexagon",1,15,"a",1.72839982900405,NA,"",NA,NA,"inlab","MacIntel",NA,NA,NA
"53",36290,NA,NA,1,296,"","","training","","","",NA,"",NA,"star","hexagon",1,16,"l",4.84768697100299,NA,"",NA,NA,"inlab","MacIntel",NA,NA,NA
"54",36290,NA,NA,1,297,"","","training","","","",NA,"",NA,"star","circle",1,17,"l",6.65314703000331,NA,"",NA,NA,"inlab","MacIntel",NA,NA,NA
"55",36290,NA,NA,10,307,"","","training","","","",NA,"",NA,"circle","triangle",1,18,"l",0.713971874003619,NA,"",NA,NA,"inlab","MacIntel",NA,NA,NA
"56",36290,NA,NA,10,317,"","","training","","","",NA,"",NA,"hexagon","circle",1,19,"a",1.746529758002,NA,"",NA,NA,"inlab","MacIntel",NA,NA,NA
"57",36290,NA,NA,1,318,"","","training","","","",NA,"",NA,"circle","star",1,20,"a",1.60196851300134,NA,"",NA,NA,"inlab","MacIntel",NA,NA,NA
"58",36290,NA,NA,10,328,"","","training","","","",NA,"",NA,"triangle","circle",1,21,"a",0.652274322001176,NA,"",NA,NA,"inlab","MacIntel",NA,NA,NA
"59",36290,NA,NA,10,338,"","","training","","","",NA,"",NA,"triangle","hexagon",1,22,"l",2.15910916299981,NA,"",NA,NA,"inlab","MacIntel",NA,NA,NA
"60",36290,NA,NA,10,348,"","","training","","","",NA,"",NA,"hexagon","star",1,23,"a",2.43640743200376,NA,"",NA,NA,"inlab","MacIntel",NA,NA,NA
"61",36290,NA,NA,10,358,"","","training","","","",NA,"",NA,"triangle","hexagon",1,24,"a",1.5892057150013,NA,"",NA,NA,"inlab","MacIntel",NA,NA,NA
"62",36290,NA,NA,10,368,"","","training","","","",NA,"",NA,"circle","hexagon",1,25,"l",3.64109183500113,NA,"",NA,NA,"inlab","MacIntel",NA,NA,NA
"63",36290,NA,NA,10,378,"","","training","","","",NA,"",NA,"triangle","circle",1,26,"a",0.802497906002827,NA,"",NA,NA,"inlab","MacIntel",NA,NA,NA
"64",36290,NA,NA,10,388,"","","training","","","",NA,"",NA,"triangle","star",1,27,"a",2.64542317400264,NA,"",NA,NA,"inlab","MacIntel",NA,NA,NA
"65",36290,NA,NA,10,398,"","","training","","","",NA,"",NA,"star","circle",1,28,"a",2.8784651850001,NA,"",NA,NA,"inlab","MacIntel",NA,NA,NA
"66",36290,NA,NA,10,408,"","","training","","","",NA,"",NA,"star","triangle",1,29,"l",0.765020745002403,NA,"",NA,NA,"inlab","MacIntel",NA,NA,NA
"67",36290,NA,NA,1,409,"","","training","","","",NA,"",NA,"hexagon","circle",1,30,"a",2.76392524600306,NA,"",NA,NA,"inlab","MacIntel",NA,NA,NA
"68",36290,NA,NA,10,419,"","","training","","","",NA,"",NA,"circle","triangle",1,31,"l",0.806972195005073,NA,"",NA,NA,"inlab","MacIntel",NA,NA,NA
"69",36290,NA,NA,10,429,"","","training","","","",NA,"",NA,"hexagon","star",1,32,"a",4.96405575600147,NA,"",NA,NA,"inlab","MacIntel",NA,NA,NA
"70",36290,NA,NA,1,430,"","","training","","","",NA,"",NA,"star","hexagon",1,33,"l",2.50938880600006,NA,"",NA,NA,"inlab","MacIntel",NA,NA,NA
"71",36290,NA,NA,1,431,"","","training","","","",NA,"",NA,"circle","star",1,34,"a",2.30056042300203,NA,"",NA,NA,"inlab","MacIntel",NA,NA,NA
"72",36290,NA,NA,1,432,"","","training","","","",NA,"",NA,"hexagon","triangle",1,35,"l",0.843714330003422,NA,"",NA,NA,"inlab","MacIntel",NA,NA,NA
"73",36290,NA,NA,10,442,"","","training","","","",NA,"",NA,"hexagon","star",2,0,"a",1.21803420200376,NA,"",NA,NA,"inlab","MacIntel",NA,NA,NA
"74",36290,NA,NA,10,452,"","","training","","","",NA,"",NA,"triangle","circle",2,1,"a",0.58790679500089,NA,"",NA,NA,"inlab","MacIntel",NA,NA,NA
"75",36290,NA,NA,10,462,"","","training","","","",NA,"",NA,"triangle","hexagon",2,2,"a",1.8025864730007,NA,"",NA,NA,"inlab","MacIntel",NA,NA,NA
"76",36290,NA,NA,1,463,"","","training","","","",NA,"",NA,"hexagon","circle",2,3,"l",1.21193534600388,NA,"",NA,NA,"inlab","MacIntel",NA,NA,NA
"77",36290,NA,NA,1,464,"","","training","","","",NA,"",NA,"star","circle",2,4,"a",4.49620225600302,NA,"",NA,NA,"inlab","MacIntel",NA,NA,NA
"78",36290,NA,NA,10,474,"","","training","","","",NA,"",NA,"hexagon","triangle",2,5,"l",0.934550013000262,NA,"",NA,NA,"inlab","MacIntel",NA,NA,NA
"79",36290,NA,NA,1,475,"","","training","","","",NA,"",NA,"circle","hexagon",2,6,"a",2.1330978440019,NA,"",NA,NA,"inlab","MacIntel",NA,NA,NA
"80",36290,NA,NA,10,485,"","","training","","","",NA,"",NA,"triangle","star",2,7,"a",1.34609184400324,NA,"",NA,NA,"inlab","MacIntel",NA,NA,NA
"81",36290,NA,NA,10,495,"","","training","","","",NA,"",NA,"circle","triangle",2,8,"l",0.584568914000556,NA,"",NA,NA,"inlab","MacIntel",NA,NA,NA
"82",36290,NA,NA,10,505,"","","training","","","",NA,"",NA,"star","hexagon",2,9,"l",1.92632850600057,NA,"",NA,NA,"inlab","MacIntel",NA,NA,NA
"83",36290,NA,NA,1,506,"","","training","","","",NA,"",NA,"circle","star",2,10,"a",0.868561953000608,NA,"",NA,NA,"inlab","MacIntel",NA,NA,NA
"84",36290,NA,NA,1,507,"","","training","","","",NA,"",NA,"star","triangle",2,11,"l",0.861835855004756,NA,"",NA,NA,"inlab","MacIntel",NA,NA,NA
"85",36290,NA,NA,10,517,"","","training","","","",NA,"",NA,"triangle","circle",2,12,"a",0.544647848004388,NA,"",NA,NA,"inlab","MacIntel",NA,NA,NA
"86",36290,NA,NA,10,527,"","","training","","","",NA,"",NA,"circle","triangle",2,13,"l",0.575078453002789,NA,"",NA,NA,"inlab","MacIntel",NA,NA,NA
"87",36290,NA,NA,10,537,"","","training","","","",NA,"",NA,"circle","hexagon",2,14,"l",2.11768484100321,NA,"",NA,NA,"inlab","MacIntel",NA,NA,NA
"88",36290,NA,NA,10,547,"","","training","","","",NA,"",NA,"star","hexagon",2,15,"l",1.50819879600385,NA,"",NA,NA,"inlab","MacIntel",NA,NA,NA
"89",36290,NA,NA,1,548,"","","training","","","",NA,"",NA,"star","circle",2,16,"l",2.0692583730015,NA,"",NA,NA,"inlab","MacIntel",NA,NA,NA
"90",36290,NA,NA,1,549,"","","training","","","",NA,"",NA,"hexagon","circle",2,17,"l",2.23678226400443,NA,"",NA,NA,"inlab","MacIntel",NA,NA,NA
"91",36290,NA,NA,1,550,"","","training","","","",NA,"",NA,"star","triangle",2,18,"l",0.637105078003515,NA,"",NA,NA,"inlab","MacIntel",NA,NA,NA
"92",36290,NA,NA,10,560,"","","training","","","",NA,"",NA,"triangle","hexagon",2,19,"a",0.633890807002899,NA,"",NA,NA,"inlab","MacIntel",NA,NA,NA
"93",36290,NA,NA,1,561,"","","training","","","",NA,"",NA,"circle","star",2,20,"a",1.02055205000215,NA,"",NA,NA,"inlab","MacIntel",NA,NA,NA
"94",36290,NA,NA,1,562,"","","training","","","",NA,"",NA,"hexagon","star",2,21,"a",0.785257483999885,NA,"",NA,NA,"inlab","MacIntel",NA,NA,NA
"95",36290,NA,NA,10,572,"","","training","","","",NA,"",NA,"hexagon","triangle",2,22,"l",0.781160212001851,NA,"",NA,NA,"inlab","MacIntel",NA,NA,NA
"96",36290,NA,NA,10,582,"","","training","","","",NA,"",NA,"triangle","star",2,23,"a",1.68269794300431,NA,"",NA,NA,"inlab","MacIntel",NA,NA,NA
"97",36290,NA,NA,10,592,"","","training","","","",NA,"",NA,"triangle","circle",2,24,"a",1.07508362300359,NA,"",NA,NA,"inlab","MacIntel",NA,NA,NA
"98",36290,NA,NA,10,602,"","","training","","","",NA,"",NA,"hexagon","circle",2,25,"a",1.16380485800255,NA,"",NA,NA,"inlab","MacIntel",NA,NA,NA
"99",36290,NA,NA,10,612,"","","training","","","",NA,"",NA,"circle","triangle",2,26,"l",0.553590244002407,NA,"",NA,NA,"inlab","MacIntel",NA,NA,NA
"100",36290,NA,NA,10,622,"","","training","","","",NA,"",NA,"hexagon","triangle",2,27,"l",1.23268353800449,NA,"",NA,NA,"inlab","MacIntel",NA,NA,NA
"101",36290,NA,NA,10,632,"","","training","","","",NA,"",NA,"triangle","hexagon",2,28,"a",1.66815782900085,NA,"",NA,NA,"inlab","MacIntel",NA,NA,NA
"102",36290,NA,NA,10,642,"","","training","","","",NA,"",NA,"circle","hexagon",2,29,"l",3.08463377200314,NA,"",NA,NA,"inlab","MacIntel",NA,NA,NA
"103",36290,NA,NA,10,652,"","","training","","","",NA,"",NA,"star","circle",2,30,"a",2.57079067700033,NA,"",NA,NA,"inlab","MacIntel",NA,NA,NA
"104",36290,NA,NA,1,653,"","","training","","","",NA,"",NA,"hexagon","star",2,31,"a",2.6392910670038,NA,"",NA,NA,"inlab","MacIntel",NA,NA,NA
"105",36290,NA,NA,10,663,"","","training","","","",NA,"",NA,"star","hexagon",2,32,"l",2.24084918800509,NA,"",NA,NA,"inlab","MacIntel",NA,NA,NA
"106",36290,NA,NA,10,673,"","","training","","","",NA,"",NA,"star","triangle",2,33,"l",1.03483595800572,NA,"",NA,NA,"inlab","MacIntel",NA,NA,NA
"107",36290,NA,NA,1,674,"","","training","","","",NA,"",NA,"circle","star",2,34,"l",2.2206883100007,NA,"",NA,NA,"inlab","MacIntel",NA,NA,NA
"108",36290,NA,NA,10,684,"","","training","","","",NA,"",NA,"triangle","star",2,35,"a",0.590856490001897,NA,"",NA,NA,"inlab","MacIntel",NA,NA,NA
"109",36290,1,0,0,684,"repeat","number","numRpt","","noRew","triangle",139,"Y",0,"","",NA,NA,"",NA,0.699719114003528,"d",0,NA,"inlab","MacIntel",NA,NA,NA
"110",36290,1,0,0,684,"switch","letter","lettSwt","","noRew","circle",160,"F",0,"","",NA,NA,"",NA,1.37827922200449,"j",1,NA,"inlab","MacIntel",NA,NA,NA
"111",36290,1,0,0,684,"switch","number","numSwt","","noRew","triangle",167,"W",0,"","",NA,NA,"",NA,0.684867690000829,"f",2,NA,"inlab","MacIntel",NA,NA,NA
"112",36290,1,0,0,684,"switch","letter","lettSwt","","noRew","star",174,"U",0,"","",NA,NA,"",NA,0.547766001003765,"k",3,NA,"inlab","MacIntel",NA,NA,NA
"113",36290,1,0,0,684,"repeat","letter","lettRpt","","noRew","triangle",139,"Y",0,"","",NA,NA,"",NA,0.543677189005393,"k",4,NA,"inlab","MacIntel",NA,NA,NA
"114",36290,0,0,0,684,"switch","number",NA,"","noRew","star",160,"F",0,"","",NA,NA,"",NA,0.605994931000168,"d",5,NA,"inlab","MacIntel",NA,NA,NA
"115",36290,1,1,0,684,"repeat","number","numRpt","","noRew","star",167,"W",0,"","",NA,NA,"",NA,0.775068178001675,"f",6,NA,"inlab","MacIntel",NA,NA,NA
"116",36290,1,0,0,684,"switch","letter","lettSwt","","noRew","circle",174,"U",0,"","",NA,NA,"",NA,0.986844258004567,"k",7,NA,"inlab","MacIntel",NA,NA,NA
"117",36290,1,0,0,684,"switch","number","numSwt","","noRew","circle",174,"H",0,"","",NA,NA,"",NA,0.589159134000511,"f",8,NA,"inlab","MacIntel",NA,NA,NA
"118",36290,1,0,0,684,"switch","letter","lettSwt","","noRew","triangle",139,"U",0,"","",NA,NA,"",NA,0.727716875004262,"k",9,NA,"inlab","MacIntel",NA,NA,NA
"119",36290,1,0,0,684,"switch","number","numSwt","","noRew","hexagon",181,"Y",0,"","",NA,NA,"",NA,0.653866528002254,"f",10,NA,"inlab","MacIntel",NA,NA,NA
"120",36290,1,0,0,684,"switch","letter","lettSwt","","noRew","circle",146,"B",0,"","",NA,NA,"",NA,0.869280182003422,"j",11,NA,"inlab","MacIntel",NA,NA,NA
"121",36290,1,0,0,684,"repeat","letter","lettRpt","","noRew","circle",174,"F",0,"","",NA,NA,"",NA,0.734324355002173,"j",12,NA,"inlab","MacIntel",NA,NA,NA
"122",36290,1,0,0,684,"switch","number","numSwt","","noRew","triangle",146,"W",0,"","",NA,NA,"",NA,0.994251876003546,"d",13,NA,"inlab","MacIntel",NA,NA,NA
"123",36290,1,0,0,684,"repeat","number","numRpt","","noRew","triangle",125,"D",0,"","",NA,NA,"",NA,0.588769896003214,"d",14,NA,"inlab","MacIntel",NA,NA,NA
"124",36290,1,0,0,684,"repeat","number","numRpt","","noRew","hexagon",139,"B",0,"","",NA,NA,"",NA,1.19244187500226,"d",15,NA,"inlab","MacIntel",NA,NA,NA
"125",36290,1,0,0,684,"switch","letter","lettSwt","","noRew","triangle",125,"U",0,"","",NA,NA,"",NA,0.867515740003,"k",16,NA,"inlab","MacIntel",NA,NA,NA
"126",36290,1,0,0,684,"repeat","letter","lettRpt","","noRew","hexagon",139,"B",0,"","",NA,NA,"",NA,0.867702253999596,"j",17,NA,"inlab","MacIntel",NA,NA,NA
"127",36290,1,0,0,684,"switch","number","numSwt","","noRew","hexagon",160,"F",0,"","",NA,NA,"",NA,0.651308178003092,"f",18,NA,"inlab","MacIntel",NA,NA,NA
"128",36290,1,0,0,684,"repeat","number","numRpt","","noRew","star",181,"H",0,"","",NA,NA,"",NA,0.489780871004768,"f",19,NA,"inlab","MacIntel",NA,NA,NA
"129",36290,1,0,0,684,"switch","letter","lettSwt","","noRew","hexagon",139,"U",0,"","",NA,NA,"",NA,0.761067077004554,"k",20,NA,"inlab","MacIntel",NA,NA,NA
"130",36290,1,0,0,684,"repeat","letter","lettRpt","","noRew","circle",146,"D",0,"","",NA,NA,"",NA,0.645891855001537,"j",21,NA,"inlab","MacIntel",NA,NA,NA
"131",36290,1,0,0,684,"repeat","letter","lettRpt","","noRew","hexagon",160,"Y",0,"","",NA,NA,"",NA,0.686704486000963,"k",22,NA,"inlab","MacIntel",NA,NA,NA
"132",36290,1,0,0,684,"switch","number","numSwt","","noRew","circle",125,"H",0,"","",NA,NA,"",NA,0.444976871003746,"d",23,NA,"inlab","MacIntel",NA,NA,NA
"133",36290,1,0,0,684,"repeat","number","numRpt","","noRew","star",125,"H",0,"","",NA,NA,"",NA,0.822921433002193,"d",24,NA,"inlab","MacIntel",NA,NA,NA
"134",36290,1,0,0,684,"repeat","number","numRpt","","noRew","hexagon",174,"B",0,"","",NA,NA,"",NA,0.606840047999867,"f",25,NA,"inlab","MacIntel",NA,NA,NA
"135",36290,1,0,0,684,"repeat","number","numRpt","","noRew","circle",132,"D",0,"","",NA,NA,"",NA,0.697563478002849,"d",26,NA,"inlab","MacIntel",NA,NA,NA
"136",36290,1,0,0,684,"switch","letter","lettSwt","","noRew","triangle",146,"S",0,"","",NA,NA,"",NA,0.751425058002496,"k",27,NA,"inlab","MacIntel",NA,NA,NA
"137",36290,1,0,0,684,"switch","number","numSwt","","noRew","star",139,"U",0,"","",NA,NA,"",NA,0.62908138900093,"d",28,NA,"inlab","MacIntel",NA,NA,NA
"138",36290,1,0,0,684,"switch","letter","lettSwt","","noRew","hexagon",125,"Y",0,"","",NA,NA,"",NA,0.639904822000972,"k",29,NA,"inlab","MacIntel",NA,NA,NA
"139",36290,1,0,0,684,"switch","number","numSwt","","noRew","hexagon",167,"S",0,"","",NA,NA,"",NA,0.567947499002912,"f",30,NA,"inlab","MacIntel",NA,NA,NA
"140",36290,1,0,0,684,"repeat","number","numRpt","","noRew","circle",132,"W",0,"","",NA,NA,"",NA,1.26831497100284,"d",31,NA,"inlab","MacIntel",NA,NA,NA
"141",36290,1,0,0,684,"repeat","number","numRpt","","noRew","circle",167,"H",0,"","",NA,NA,"",NA,0.809366098001192,"f",32,NA,"inlab","MacIntel",NA,NA,NA
"142",36290,1,0,0,684,"switch","letter","lettSwt","","noRew","hexagon",146,"B",0,"","",NA,NA,"",NA,0.588740532002703,"j",33,NA,"inlab","MacIntel",NA,NA,NA
"143",36290,1,0,0,684,"repeat","letter","lettRpt","","noRew","hexagon",174,"S",0,"","",NA,NA,"",NA,0.711125028003153,"k",34,NA,"inlab","MacIntel",NA,NA,NA
"144",36290,1,0,0,684,"repeat","letter","lettRpt","","noRew","triangle",125,"D",0,"","",NA,NA,"",NA,0.781623847004084,"j",35,NA,"inlab","MacIntel",NA,NA,NA
"145",36290,1,0,0,684,"switch","number","numSwt","","noRew","hexagon",174,"H",0,"","",NA,NA,"",NA,0.975943116001872,"f",36,NA,"inlab","MacIntel",NA,NA,NA
"146",36290,1,0,0,684,"switch","letter","lettSwt","","noRew","circle",160,"D",0,"","",NA,NA,"",NA,0.579274856001575,"j",37,NA,"inlab","MacIntel",NA,NA,NA
"147",36290,1,0,0,684,"switch","number","numSwt","","noRew","star",146,"Y",0,"","",NA,NA,"",NA,1.11851985700196,"d",38,NA,"inlab","MacIntel",NA,NA,NA
"148",36290,1,0,0,684,"switch","letter","lettSwt","","noRew","circle",139,"U",0,"","",NA,NA,"",NA,1.94834427500246,"k",39,NA,"inlab","MacIntel",NA,NA,NA
"149",36290,1,0,0,684,"switch","number","numSwt","","noRew","triangle",125,"U",0,"","",NA,NA,"",NA,0.480025134002062,"d",40,NA,"inlab","MacIntel",NA,NA,NA
"150",36290,1,0,0,684,"switch","letter","lettSwt","","noRew","star",146,"S",0,"","",NA,NA,"",NA,0.663454686000478,"k",41,NA,"inlab","MacIntel",NA,NA,NA
"151",36290,1,0,0,684,"switch","number","numSwt","","noRew","hexagon",167,"W",0,"","",NA,NA,"",NA,0.559668780002539,"f",42,NA,"inlab","MacIntel",NA,NA,NA
"152",36290,1,0,0,684,"repeat","number","numRpt","","noRew","triangle",160,"F",0,"","",NA,NA,"",NA,0.65953664600238,"f",43,NA,"inlab","MacIntel",NA,NA,NA
"153",36290,1,0,0,684,"switch","letter","lettSwt","","noRew","hexagon",167,"F",0,"","",NA,NA,"",NA,0.844752535005682,"j",44,NA,"inlab","MacIntel",NA,NA,NA
"154",36290,1,0,0,684,"repeat","letter","lettRpt","","noRew","triangle",139,"D",0,"","",NA,NA,"",NA,0.724536575002276,"j",45,NA,"inlab","MacIntel",NA,NA,NA
"155",36290,1,0,0,684,"switch","number","numSwt","","noRew","triangle",146,"S",0,"","",NA,NA,"",NA,0.45776899500197,"d",46,NA,"inlab","MacIntel",NA,NA,NA
"156",36290,1,0,0,684,"repeat","number","numRpt","","noRew","circle",174,"W",0,"","",NA,NA,"",NA,0.739513844000612,"f",47,NA,"inlab","MacIntel",NA,NA,NA
"157",36290,1,0,0,684,"repeat","number","numRpt","","noRew","hexagon",146,"Y",0,"","",NA,NA,"",NA,1.07081522500084,"d",48,NA,"inlab","MacIntel",NA,NA,NA
"158",36290,1,0,0,684,"repeat","number","numRpt","","noRew","triangle",181,"U",0,"","",NA,NA,"",NA,0.734852408004372,"f",49,NA,"inlab","MacIntel",NA,NA,NA
"159",36290,1,0,0,684,"repeat","number","numRpt","","noRew","hexagon",167,"W",0,"","",NA,NA,"",NA,1.06876724500398,"f",50,NA,"inlab","MacIntel",NA,NA,NA
"160",36290,1,0,0,684,"repeat","number","numRpt","","noRew","triangle",160,"B",0,"","",NA,NA,"",NA,1.43598716200358,"f",51,NA,"inlab","MacIntel",NA,NA,NA
"161",36290,1,0,0,684,"repeat","number","numRpt","","noRew","star",167,"F",0,"","",NA,NA,"",NA,1.12359703100447,"f",52,NA,"inlab","MacIntel",NA,NA,NA
"162",36290,1,0,0,684,"switch","letter","lettSwt","","noRew","triangle",146,"S",0,"","",NA,NA,"",NA,0.808450676002394,"k",53,NA,"inlab","MacIntel",NA,NA,NA
"163",36290,1,0,0,684,"repeat","letter","lettRpt","","noRew","circle",181,"U",0,"","",NA,NA,"",NA,0.690281490002235,"k",54,NA,"inlab","MacIntel",NA,NA,NA
"164",36290,1,0,0,684,"repeat","letter","lettRpt","","noRew","triangle",174,"D",0,"","",NA,NA,"",NA,0.744137743004103,"j",55,NA,"inlab","MacIntel",NA,NA,NA
"165",36290,1,0,0,684,"switch","number","numSwt","","noRew","triangle",146,"B",0,"","",NA,NA,"",NA,0.789034401001118,"d",56,NA,"inlab","MacIntel",NA,NA,NA
"166",36290,1,0,0,684,"switch","letter","lettSwt","","noRew","star",125,"W",0,"","",NA,NA,"",NA,1.48084548300176,"k",57,NA,"inlab","MacIntel",NA,NA,NA
"167",36290,1,0,0,684,"repeat","letter","lettRpt","","noRew","circle",139,"Y",0,"","",NA,NA,"",NA,0.623101399003644,"k",58,NA,"inlab","MacIntel",NA,NA,NA
"168",36290,1,0,0,684,"switch","number","numSwt","","noRew","star",167,"S",0,"","",NA,NA,"",NA,0.64069346600445,"f",59,NA,"inlab","MacIntel",NA,NA,NA
"169",36290,1,0,0,684,"repeat","number","numRpt","","noRew","circle",167,"S",0,"","",NA,NA,"",NA,0.593396041003871,"f",60,NA,"inlab","MacIntel",NA,NA,NA
"170",36290,1,0,0,684,"switch","letter","lettSwt","","noRew","triangle",160,"W",0,"","",NA,NA,"",NA,0.651410369002406,"k",61,NA,"inlab","MacIntel",NA,NA,NA
"171",36290,1,0,0,684,"repeat","letter","lettRpt","","noRew","hexagon",132,"H",0,"","",NA,NA,"",NA,0.828637690003234,"j",62,NA,"inlab","MacIntel",NA,NA,NA
"172",36290,1,0,0,684,"switch","number","numSwt","","noRew","triangle",139,"F",0,"","",NA,NA,"",NA,0.645708650001325,"d",63,NA,"inlab","MacIntel",NA,NA,NA
"173",36290,1,0,1,685,"switch","letter","lettSwt","high","noRew","circle",132,"U",0,"","",NA,NA,"",NA,0.549175505002495,"k",NA,0,"inlab","MacIntel",NA,NA,NA
"174",36290,1,0,10,695,"repeat","letter","lettRpt","high","noRew","triangle",167,"H",0,"","",NA,NA,"",NA,0.625050227001338,"j",NA,1,"inlab","MacIntel",NA,NA,NA
"175",36290,1,0,10,705,"repeat","letter","lettRpt","high","noRew","triangle",125,"B",0,"","",NA,NA,"",NA,0.56223056700037,"j",NA,2,"inlab","MacIntel",NA,NA,NA
"176",36290,1,0,1,706,"repeat","letter","lettRpt","high","noRew","circle",160,"W",0,"","",NA,NA,"",NA,0.734867857001518,"k",NA,3,"inlab","MacIntel",NA,NA,NA
"177",36290,1,0,10,716,"switch","number","numSwt","high","noRew","triangle",139,"F",0,"","",NA,NA,"",NA,0.508089362003375,"d",NA,4,"inlab","MacIntel",NA,NA,NA
"178",36290,1,0,1,717,"repeat","number","numRpt","high","noRew","circle",181,"S",0,"","",NA,NA,"",NA,1.65167557800305,"f",NA,5,"inlab","MacIntel",NA,NA,NA
"179",36290,1,0,1,718,"repeat","number","numRpt","high","noRew","circle",174,"Y",0,"","",NA,NA,"",NA,2.18685426500451,"f",NA,6,"inlab","MacIntel",NA,NA,NA
"180",36290,1,0,10,728,"switch","letter","lettSwt","high","noRew","triangle",146,"D",0,"","",NA,NA,"",NA,0.524009983000724,"j",NA,7,"inlab","MacIntel",NA,NA,NA
"181",36290,1,0,0,728,"repeat","letter","lettRpt","high","noRew","triangle",132,"U",0,"","",NA,NA,"",NA,0.722208633003902,"k",NA,8,"inlab","MacIntel",NA,NA,NA
"182",36290,1,0,10,738,"repeat","letter","lettRpt","high","noRew","circle",167,"H",0,"","",NA,NA,"",NA,0.910575748002884,"j",NA,9,"inlab","MacIntel",NA,NA,NA
"183",36290,1,0,10,748,"repeat","letter","lettRpt","high","noRew","triangle",125,"B",0,"","",NA,NA,"",NA,0.42804945700118,"j",NA,10,"inlab","MacIntel",NA,NA,NA
"184",36290,0,0,0,748,"repeat","letter",NA,"high","noRew","circle",160,"W",0,"","",NA,NA,"",NA,0.614528665999387,"j",NA,11,"inlab","MacIntel",NA,NA,NA
"185",36290,1,1,10,758,"repeat","letter","lettRpt","high","noRew","triangle",139,"F",0,"","",NA,NA,"",NA,0.368146101001912,"j",NA,12,"inlab","MacIntel",NA,NA,NA
"186",36290,1,0,1,759,"switch","number","numSwt","high","noRew","circle",181,"S",0,"","",NA,NA,"",NA,0.372306376000779,"f",NA,13,"inlab","MacIntel",NA,NA,NA
"187",36290,0,0,0,759,"repeat","number",NA,"high","noRew","circle",174,"Y",0,"","",NA,NA,"",NA,0.359642033003183,"d",NA,14,"inlab","MacIntel",NA,NA,NA
"188",36290,1,1,1,760,"switch","letter","lettSwt","high","noRew","triangle",146,"D",0,"","",NA,NA,"",NA,0.501796715005185,"j",NA,15,"inlab","MacIntel",NA,NA,NA
"189",36290,1,0,10,770,"switch","number","numSwt","high","noRew","circle",160,"H",0,"","",NA,NA,"",NA,0.419318282001768,"f",NA,16,"inlab","MacIntel",NA,NA,NA
"190",36290,1,0,10,780,"repeat","number","numRpt","high","noRew","triangle",167,"B",0,"","",NA,NA,"",NA,0.572120639004424,"f",NA,17,"inlab","MacIntel",NA,NA,NA
"191",36290,1,0,10,790,"repeat","number","numRpt","high","noRew","triangle",174,"D",0,"","",NA,NA,"",NA,0.449973589005822,"f",NA,18,"inlab","MacIntel",NA,NA,NA
"192",36290,1,0,10,800,"switch","letter","lettSwt","high","noRew","circle",146,"S",0,"","",NA,NA,"",NA,0.522692893002386,"k",NA,19,"inlab","MacIntel",NA,NA,NA
"193",36290,1,0,10,810,"repeat","letter","lettRpt","high","noRew","triangle",125,"U",0,"","",NA,NA,"",NA,0.479594999003893,"k",NA,20,"inlab","MacIntel",NA,NA,NA
"194",36290,1,0,1,811,"switch","number","numSwt","high","noRew","circle",181,"Y",0,"","",NA,NA,"",NA,0.358179052003834,"f",NA,21,"inlab","MacIntel",NA,NA,NA
"195",36290,1,0,1,812,"switch","letter","lettSwt","high","noRew","circle",139,"W",0,"","",NA,NA,"",NA,0.619074374004413,"k",NA,22,"inlab","MacIntel",NA,NA,NA
"196",36290,0,0,0,812,"repeat","letter",NA,"high","noRew","triangle",132,"F",0,"","",NA,NA,"",NA,0.509507635000773,"k",NA,23,"inlab","MacIntel",NA,NA,NA
"197",36290,1,1,10,822,"repeat","letter","lettRpt","high","noRew","triangle",125,"D",0,"","",NA,NA,"",NA,0.57252507800149,"j",NA,24,"inlab","MacIntel",NA,NA,NA
"198",36290,1,0,1,823,"repeat","letter","lettRpt","high","noRew","circle",181,"F",0,"","",NA,NA,"",NA,0.438812038002652,"j",NA,25,"inlab","MacIntel",NA,NA,NA
"199",36290,1,0,1,824,"repeat","letter","lettRpt","high","noRew","triangle",160,"W",0,"","",NA,NA,"",NA,0.649400680002145,"k",NA,26,"inlab","MacIntel",NA,NA,NA
"200",36290,1,0,1,825,"switch","number","numSwt","high","noRew","circle",174,"H",0,"","",NA,NA,"",NA,0.551927866003098,"f",NA,27,"inlab","MacIntel",NA,NA,NA
"201",36290,1,0,1,826,"repeat","number","numRpt","high","noRew","circle",167,"Y",0,"","",NA,NA,"",NA,0.445847850001883,"f",NA,28,"inlab","MacIntel",NA,NA,NA
"202",36290,1,0,10,836,"repeat","number","numRpt","high","noRew","triangle",132,"S",0,"","",NA,NA,"",NA,0.470118413002638,"d",NA,29,"inlab","MacIntel",NA,NA,NA
"203",36290,1,0,10,846,"repeat","number","numRpt","high","noRew","triangle",139,"U",0,"","",NA,NA,"",NA,0.567121778003639,"d",NA,30,"inlab","MacIntel",NA,NA,NA
"204",36290,1,0,10,856,"switch","letter","lettSwt","high","noRew","circle",146,"B",0,"","",NA,NA,"",NA,0.499122888002603,"j",NA,31,"inlab","MacIntel",NA,NA,NA
"205",36290,1,0,0,856,"repeat","letter","lettRpt","low","noRew","star",160,"U",1,"","",NA,NA,"",NA,0.508771779001108,"k",NA,0,"inlab","MacIntel",NA,NA,NA
"206",36290,1,0,1,857,"repeat","letter","lettRpt","low","noRew","hexagon",125,"Y",1,"","",NA,NA,"",NA,0.442885038002714,"k",NA,1,"inlab","MacIntel",NA,NA,NA
"207",36290,1,0,1,858,"repeat","letter","lettRpt","low","noRew","star",132,"S",1,"","",NA,NA,"",NA,0.451950457001658,"k",NA,2,"inlab","MacIntel",NA,NA,NA
"208",36290,1,0,1,859,"repeat","letter","lettRpt","low","noRew","hexagon",167,"D",1,"","",NA,NA,"",NA,0.469014511003479,"j",NA,3,"inlab","MacIntel",NA,NA,NA
"209",36290,1,0,10,869,"switch","number","numSwt","low","noRew","hexagon",174,"W",1,"","",NA,NA,"",NA,0.380308726002113,"f",NA,4,"inlab","MacIntel",NA,NA,NA
"210",36290,1,0,10,879,"repeat","number","numRpt","low","noRew","star",139,"F",1,"","",NA,NA,"",NA,0.464415103000647,"d",NA,5,"inlab","MacIntel",NA,NA,NA
"211",36290,1,0,1,880,"repeat","number","numRpt","low","noRew","hexagon",181,"H",1,"","",NA,NA,"",NA,0.481149996005115,"f",NA,6,"inlab","MacIntel",NA,NA,NA
"212",36290,0,0,0,880,"switch","letter",NA,"low","noRew","star",146,"B",1,"","",NA,NA,"",NA,0.351421391002077,"k",NA,7,"inlab","MacIntel",NA,NA,NA
"213",36290,1,1,0,880,"repeat","letter","lettRpt","low","noRew","star",160,"U",1,"","",NA,NA,"",NA,0.524798139002087,"k",NA,8,"inlab","MacIntel",NA,NA,NA
"214",36290,1,0,1,881,"repeat","letter","lettRpt","low","noRew","hexagon",125,"Y",1,"","",NA,NA,"",NA,0.506471945001977,"k",NA,9,"inlab","MacIntel",NA,NA,NA
"215",36290,1,0,0,881,"repeat","letter","lettRpt","low","noRew","star",132,"S",1,"","",NA,NA,"",NA,0.609077020002587,"k",NA,10,"inlab","MacIntel",NA,NA,NA
"216",36290,1,0,1,882,"repeat","letter","lettRpt","low","noRew","hexagon",167,"D",1,"","",NA,NA,"",NA,0.539477084003011,"j",NA,11,"inlab","MacIntel",NA,NA,NA
"217",36290,1,0,10,892,"switch","number","numSwt","low","noRew","star",174,"W",1,"","",NA,NA,"",NA,0.344596927003295,"f",NA,12,"inlab","MacIntel",NA,NA,NA
"218",36290,1,0,10,902,"repeat","number","numRpt","low","noRew","hexagon",139,"F",1,"","",NA,NA,"",NA,0.397743788002117,"d",NA,13,"inlab","MacIntel",NA,NA,NA
"219",36290,1,0,1,903,"repeat","number","numRpt","low","noRew","star",181,"H",1,"","",NA,NA,"",NA,0.34383220300515,"f",NA,14,"inlab","MacIntel",NA,NA,NA
"220",36290,1,0,10,913,"repeat","number","numRpt","low","noRew","hexagon",146,"B",1,"","",NA,NA,"",NA,0.581931512002484,"d",NA,15,"inlab","MacIntel",NA,NA,NA
"221",36290,1,0,10,923,"repeat","number","numRpt","low","noRew","hexagon",160,"D",1,"","",NA,NA,"",NA,0.481252019002568,"f",NA,16,"inlab","MacIntel",NA,NA,NA
"222",36290,1,0,1,924,"switch","letter","lettSwt","low","noRew","star",146,"U",1,"","",NA,NA,"",NA,0.368963173001248,"k",NA,17,"inlab","MacIntel",NA,NA,NA
"223",36290,1,0,10,934,"repeat","letter","lettRpt","low","noRew","star",125,"W",1,"","",NA,NA,"",NA,0.469255719002831,"k",NA,18,"inlab","MacIntel",NA,NA,NA
"224",36290,1,0,1,935,"switch","number","numSwt","low","noRew","hexagon",139,"H",1,"","",NA,NA,"",NA,0.564614512004482,"d",NA,19,"inlab","MacIntel",NA,NA,NA
"225",36290,0,0,0,935,"switch","letter",NA,"low","noRew","star",132,"B",1,"","",NA,NA,"",NA,0.361640221002745,"k",NA,20,"inlab","MacIntel",NA,NA,NA
"226",36290,1,1,10,945,"repeat","letter","lettRpt","low","noRew","hexagon",174,"F",1,"","",NA,NA,"",NA,0.550859089002188,"j",NA,21,"inlab","MacIntel",NA,NA,NA
"227",36290,1,0,1,946,"switch","number","numSwt","low","noRew","hexagon",181,"S",1,"","",NA,NA,"",NA,0.498769178000657,"f",NA,22,"inlab","MacIntel",NA,NA,NA
"228",36290,1,0,0,946,"repeat","number","numRpt","low","noRew","star",167,"Y",1,"","",NA,NA,"",NA,0.523459354004444,"f",NA,23,"inlab","MacIntel",NA,NA,NA
"229",36290,0,0,0,946,"repeat","number",NA,"low","noRew","star",146,"D",1,"","",NA,NA,"",NA,0.400614615002269,"f",NA,24,"inlab","MacIntel",NA,NA,NA
"230",36290,1,1,1,947,"repeat","number","numRpt","low","noRew","hexagon",125,"F",1,"","",NA,NA,"",NA,0.545635795006092,"d",NA,25,"inlab","MacIntel",NA,NA,NA
"231",36290,1,0,1,948,"repeat","number","numRpt","low","noRew","hexagon",181,"H",1,"","",NA,NA,"",NA,0.478829349001899,"f",NA,26,"inlab","MacIntel",NA,NA,NA
"232",36290,1,0,1,949,"switch","letter","lettSwt","low","noRew","star",160,"Y",1,"","",NA,NA,"",NA,0.406131493004068,"k",NA,27,"inlab","MacIntel",NA,NA,NA
"233",36290,1,0,10,959,"switch","number","numSwt","low","noRew","hexagon",139,"S",1,"","",NA,NA,"",NA,0.569444824002858,"d",NA,28,"inlab","MacIntel",NA,NA,NA
"234",36290,1,0,10,969,"switch","letter","lettSwt","low","noRew","star",167,"W",1,"","",NA,NA,"",NA,0.35633495699949,"k",NA,29,"inlab","MacIntel",NA,NA,NA
"235",36290,1,0,0,969,"switch","number","numSwt","low","noRew","star",174,"B",1,"","",NA,NA,"",NA,0.617930597003578,"f",NA,30,"inlab","MacIntel",NA,NA,NA
"236",36290,1,0,1,970,"repeat","number","numRpt","low","noRew","hexagon",132,"U",1,"","",NA,NA,"",NA,0.50701494200257,"d",NA,31,"inlab","MacIntel",NA,NA,NA
"237",36290,0,0,0,970,"switch","letter",NA,"low","noRew","star",181,"D",2,"","",NA,NA,"",NA,0.367323821003083,"k",NA,0,"inlab","MacIntel",NA,NA,NA
"238",36290,1,1,10,980,"switch","number","numSwt","low","noRew","hexagon",139,"W",2,"","",NA,NA,"",NA,0.434794808003062,"d",NA,1,"inlab","MacIntel",NA,NA,NA
"239",36290,1,0,1,981,"repeat","number","numRpt","low","noRew","star",146,"U",2,"","",NA,NA,"",NA,0.451396671003749,"d",NA,2,"inlab","MacIntel",NA,NA,NA
"240",36290,1,0,1,982,"switch","letter","lettSwt","low","noRew","hexagon",132,"S",2,"","",NA,NA,"",NA,0.548322702004953,"k",NA,3,"inlab","MacIntel",NA,NA,NA
"241",36290,1,0,1,983,"repeat","letter","lettRpt","low","noRew","hexagon",174,"Y",2,"","",NA,NA,"",NA,0.417868070002441,"k",NA,4,"inlab","MacIntel",NA,NA,NA
"242",36290,1,0,1,984,"repeat","letter","lettRpt","low","noRew","star",167,"B",2,"","",NA,NA,"",NA,0.46751383400624,"j",NA,5,"inlab","MacIntel",NA,NA,NA
"243",36290,1,0,0,984,"repeat","letter","lettRpt","low","noRew","star",160,"H",2,"","",NA,NA,"",NA,0.531292922005377,"j",NA,6,"inlab","MacIntel",NA,NA,NA
"244",36290,1,0,10,994,"switch","number","numSwt","low","noRew","hexagon",125,"F",2,"","",NA,NA,"",NA,0.495778152002458,"d",NA,7,"inlab","MacIntel",NA,NA,NA
"245",36290,1,0,1,995,"repeat","number","numRpt","low","noRew","hexagon",181,"D",2,"","",NA,NA,"",NA,0.559536712004046,"f",NA,8,"inlab","MacIntel",NA,NA,NA
"246",36290,0,0,0,995,"switch","letter",NA,"low","noRew","star",139,"W",2,"","",NA,NA,"",NA,0.379820730002393,"j",NA,9,"inlab","MacIntel",NA,NA,NA
"247",36290,0,1,0,995,"repeat","letter",NA,"low","noRew","hexagon",146,"U",2,"","",NA,NA,"",NA,0.535292068001581,"j",NA,10,"inlab","MacIntel",NA,NA,NA
"248",36290,1,1,0,995,"repeat","letter","lettRpt","low","noRew","star",132,"S",2,"","",NA,NA,"",NA,0.588862778000475,"k",NA,11,"inlab","MacIntel",NA,NA,NA
"249",36290,1,0,10,1005,"repeat","letter","lettRpt","low","noRew","star",174,"Y",2,"","",NA,NA,"",NA,0.390793855003722,"k",NA,12,"inlab","MacIntel",NA,NA,NA
"250",36290,1,0,1,1006,"switch","number","numSwt","low","noRew","hexagon",167,"B",2,"","",NA,NA,"",NA,0.506615577003686,"f",NA,13,"inlab","MacIntel",NA,NA,NA
"251",36290,1,0,1,1007,"repeat","number","numRpt","low","noRew","star",160,"H",2,"","",NA,NA,"",NA,0.40780613300376,"f",NA,14,"inlab","MacIntel",NA,NA,NA
"252",36290,1,0,10,1017,"repeat","number","numRpt","low","noRew","hexagon",125,"F",2,"","",NA,NA,"",NA,0.572300372004975,"d",NA,15,"inlab","MacIntel",NA,NA,NA
"253",36290,1,0,1,1018,"repeat","number","numRpt","low","noRew","hexagon",146,"H",2,"","",NA,NA,"",NA,0.614740867000364,"d",NA,16,"inlab","MacIntel",NA,NA,NA
"254",36290,1,0,1,1019,"repeat","number","numRpt","low","noRew","star",125,"W",2,"","",NA,NA,"",NA,0.361404648003372,"d",NA,17,"inlab","MacIntel",NA,NA,NA
"255",36290,0,0,0,1019,"repeat","number",NA,"low","noRew","star",174,"S",2,"","",NA,NA,"",NA,0.356765879001614,"d",NA,18,"inlab","MacIntel",NA,NA,NA
"256",36290,1,1,1,1020,"repeat","number","numRpt","low","noRew","hexagon",132,"U",2,"","",NA,NA,"",NA,0.467249062003248,"d",NA,19,"inlab","MacIntel",NA,NA,NA
"257",36290,1,0,10,1030,"repeat","number","numRpt","low","noRew","star",167,"D",2,"","",NA,NA,"",NA,0.330874487000983,"f",NA,20,"inlab","MacIntel",NA,NA,NA
"258",36290,1,0,10,1040,"switch","letter","lettSwt","low","noRew","hexagon",181,"F",2,"","",NA,NA,"",NA,0.711812309000379,"j",NA,21,"inlab","MacIntel",NA,NA,NA
"259",36290,1,0,0,1040,"repeat","letter","lettRpt","low","noRew","star",160,"B",2,"","",NA,NA,"",NA,0.517880298004457,"j",NA,22,"inlab","MacIntel",NA,NA,NA
"260",36290,1,0,10,1050,"repeat","letter","lettRpt","low","noRew","hexagon",139,"Y",2,"","",NA,NA,"",NA,0.468085293003242,"k",NA,23,"inlab","MacIntel",NA,NA,NA
"261",36290,1,0,10,1060,"repeat","letter","lettRpt","low","noRew","star",167,"U",2,"","",NA,NA,"",NA,0.364102220002678,"k",NA,24,"inlab","MacIntel",NA,NA,NA
"262",36290,1,0,1,1061,"switch","number","numSwt","low","noRew","hexagon",139,"Y",2,"","",NA,NA,"",NA,0.439967347003403,"d",NA,25,"inlab","MacIntel",NA,NA,NA
"263",36290,1,0,0,1061,"switch","letter","lettSwt","low","noRew","star",160,"D",2,"","",NA,NA,"",NA,0.450716794002801,"j",NA,26,"inlab","MacIntel",NA,NA,NA
"264",36290,1,0,10,1071,"switch","number","numSwt","low","noRew","hexagon",146,"H",2,"","",NA,NA,"",NA,0.667610410000634,"d",NA,27,"inlab","MacIntel",NA,NA,NA
"265",36290,1,0,0,1071,"switch","letter","lettSwt","low","noRew","star",132,"W",2,"","",NA,NA,"",NA,0.417991269001504,"k",NA,28,"inlab","MacIntel",NA,NA,NA
"266",36290,1,0,1,1072,"repeat","letter","lettRpt","low","noRew","hexagon",181,"F",2,"","",NA,NA,"",NA,0.828143295002519,"j",NA,29,"inlab","MacIntel",NA,NA,NA
"267",36290,0,0,0,1072,"repeat","letter",NA,"low","noRew","star",125,"S",2,"","",NA,NA,"",NA,0.413212774001295,"j",NA,30,"inlab","MacIntel",NA,NA,NA
"268",36290,1,1,10,1082,"repeat","letter","lettRpt","low","noRew","hexagon",174,"B",2,"","",NA,NA,"",NA,0.496220949000417,"j",NA,31,"inlab","MacIntel",NA,NA,NA
"269",36290,1,0,0,1082,"repeat","letter","lettRpt","high","noRew","triangle",167,"D",3,"","",NA,NA,"",NA,0.472849085002963,"j",NA,0,"inlab","MacIntel",NA,NA,NA
"270",36290,1,0,1,1083,"repeat","letter","lettRpt","high","noRew","circle",174,"B",3,"","",NA,NA,"",NA,0.450712740002928,"j",NA,1,"inlab","MacIntel",NA,NA,NA
"271",36290,0,0,0,1083,"repeat","letter",NA,"high","noRew","circle",181,"U",3,"","",NA,NA,"",NA,0.385916234001343,"j",NA,2,"inlab","MacIntel",NA,NA,NA
"272",36290,1,1,0,1083,"switch","number","numSwt","high","noRew","triangle",146,"W",3,"","",NA,NA,"",NA,0.469523702005972,"d",NA,3,"inlab","MacIntel",NA,NA,NA
"273",36290,1,0,1,1084,"repeat","number","numRpt","high","noRew","circle",160,"S",3,"","",NA,NA,"",NA,0.56575273999988,"f",NA,4,"inlab","MacIntel",NA,NA,NA
"274",36290,0,0,0,1084,"switch","letter",NA,"high","noRew","triangle",132,"H",3,"","",NA,NA,"",NA,0.417993878003472,"k",NA,5,"inlab","MacIntel",NA,NA,NA
"275",36290,0,1,0,1084,"repeat","letter",NA,"high","noRew","circle",125,"F",3,"","",NA,NA,"",NA,0.451747228002205,"k",NA,6,"inlab","MacIntel",NA,NA,NA
"276",36290,1,1,10,1094,"repeat","letter","lettRpt","high","noRew","triangle",139,"Y",3,"","",NA,NA,"",NA,0.404206301001977,"k",NA,7,"inlab","MacIntel",NA,NA,NA
"277",36290,1,0,1,1095,"repeat","letter","lettRpt","high","noRew","triangle",167,"D",3,"","",NA,NA,"",NA,0.414450770003896,"j",NA,8,"inlab","MacIntel",NA,NA,NA
"278",36290,1,0,1,1096,"repeat","letter","lettRpt","high","noRew","circle",174,"B",3,"","",NA,NA,"",NA,0.512105460002203,"j",NA,9,"inlab","MacIntel",NA,NA,NA
"279",36290,1,0,1,1097,"switch","number","numSwt","high","noRew","circle",181,"U",3,"","",NA,NA,"",NA,0.342712651003239,"f",NA,10,"inlab","MacIntel",NA,NA,NA
"280",36290,1,0,1,1098,"switch","letter","lettSwt","high","noRew","triangle",146,"W",3,"","",NA,NA,"",NA,0.348934188001294,"k",NA,11,"inlab","MacIntel",NA,NA,NA
"281",36290,1,0,0,1098,"repeat","letter","lettRpt","high","noRew","triangle",160,"S",3,"","",NA,NA,"",NA,0.523006755003735,"k",NA,12,"inlab","MacIntel",NA,NA,NA
"282",36290,1,0,1,1099,"repeat","letter","lettRpt","high","noRew","circle",132,"H",3,"","",NA,NA,"",NA,0.575328835002438,"j",NA,13,"inlab","MacIntel",NA,NA,NA
"283",36290,1,0,10,1109,"switch","number","numSwt","high","noRew","circle",125,"F",3,"","",NA,NA,"",NA,0.467599130002782,"d",NA,14,"inlab","MacIntel",NA,NA,NA
"284",36290,1,0,10,1119,"repeat","number","numRpt","high","noRew","triangle",139,"Y",3,"","",NA,NA,"",NA,0.379324544002884,"d",NA,15,"inlab","MacIntel",NA,NA,NA
"285",36290,1,0,1,1120,"switch","letter","lettSwt","high","noRew","circle",181,"B",3,"","",NA,NA,"",NA,0.471598962005373,"j",NA,16,"inlab","MacIntel",NA,NA,NA
"286",36290,1,0,1,1121,"switch","number","numSwt","high","noRew","triangle",125,"W",3,"","",NA,NA,"",NA,0.310042229000828,"d",NA,17,"inlab","MacIntel",NA,NA,NA
"287",36290,0,0,0,1121,"repeat","number",NA,"high","noRew","triangle",146,"H",3,"","",NA,NA,"",NA,0.373448176003876,"f",NA,18,"inlab","MacIntel",NA,NA,NA
"288",36290,1,1,1,1122,"switch","letter","lettSwt","high","noRew","circle",139,"U",3,"","",NA,NA,"",NA,0.512247159003891,"k",NA,19,"inlab","MacIntel",NA,NA,NA
"289",36290,1,0,10,1132,"repeat","letter","lettRpt","high","noRew","circle",160,"Y",3,"","",NA,NA,"",NA,0.416941594005038,"k",NA,20,"inlab","MacIntel",NA,NA,NA
"290",36290,1,0,0,1132,"switch","number","numSwt","high","noRew","triangle",174,"S",3,"","",NA,NA,"",NA,0.506377919002261,"f",NA,21,"inlab","MacIntel",NA,NA,NA
"291",36290,0,0,0,1132,"repeat","number",NA,"high","noRew","circle",167,"D",3,"","",NA,NA,"",NA,0.520180531002552,"d",NA,22,"inlab","MacIntel",NA,NA,NA
"292",36290,1,1,10,1142,"repeat","number","numRpt","high","noRew","triangle",132,"F",3,"","",NA,NA,"",NA,0.406097615003091,"d",NA,23,"inlab","MacIntel",NA,NA,NA
"293",36290,1,0,1,1143,"switch","letter","lettSwt","high","noRew","circle",167,"S",3,"","",NA,NA,"",NA,0.585549149003782,"k",NA,24,"inlab","MacIntel",NA,NA,NA
"294",36290,1,0,10,1153,"switch","number","numSwt","high","noRew","triangle",132,"Y",3,"","",NA,NA,"",NA,0.387014862000797,"d",NA,25,"inlab","MacIntel",NA,NA,NA
"295",36290,1,0,10,1163,"switch","letter","lettSwt","high","noRew","circle",125,"F",3,"","",NA,NA,"",NA,0.534570649004309,"j",NA,26,"inlab","MacIntel",NA,NA,NA
"296",36290,1,0,10,1173,"switch","number","numSwt","high","noRew","triangle",174,"D",3,"","",NA,NA,"",NA,0.451465353002277,"f",NA,27,"inlab","MacIntel",NA,NA,NA
"297",36290,0,0,0,1173,"repeat","number",NA,"high","noRew","triangle",146,"W",3,"","",NA,NA,"",NA,0.523396594002406,"f",NA,28,"inlab","MacIntel",NA,NA,NA
"298",36290,1,1,1,1174,"switch","letter","lettSwt","high","noRew","circle",139,"B",3,"","",NA,NA,"",NA,0.451135578001413,"j",NA,29,"inlab","MacIntel",NA,NA,NA
"299",36290,1,0,10,1184,"switch","number","numSwt","high","noRew","triangle",181,"U",3,"","",NA,NA,"",NA,0.402491796005052,"f",NA,30,"inlab","MacIntel",NA,NA,NA
"300",36290,1,0,1,1185,"switch","letter","lettSwt","high","noRew","circle",160,"H",3,"","",NA,NA,"",NA,0.492865474003338,"j",NA,31,"inlab","MacIntel",NA,NA,NA
"301",36290,0,0,0,1185,"repeat","letter",NA,"low","noRew","star",139,"S",4,"","",NA,NA,"",NA,0.383919636005885,"j",NA,0,"inlab","MacIntel",NA,NA,NA
"302",36290,1,1,10,1195,"repeat","letter","lettRpt","low","noRew","hexagon",146,"D",4,"","",NA,NA,"",NA,0.369420711002022,"j",NA,1,"inlab","MacIntel",NA,NA,NA
"303",36290,1,0,0,1195,"repeat","letter","lettRpt","low","noRew","star",160,"B",4,"","",NA,NA,"",NA,0.469600174001243,"j",NA,2,"inlab","MacIntel",NA,NA,NA
"304",36290,1,0,10,1205,"repeat","letter","lettRpt","low","noRew","hexagon",125,"W",4,"","",NA,NA,"",NA,0.454171647001203,"k",NA,3,"inlab","MacIntel",NA,NA,NA
"305",36290,0,0,0,1205,"switch","number",NA,"low","noRew","star",132,"U",4,"","",NA,NA,"",NA,0.421998484001961,"f",NA,4,"inlab","MacIntel",NA,NA,NA
"306",36290,1,1,1,1206,"switch","letter","lettSwt","low","noRew","hexagon",181,"Y",4,"","",NA,NA,"",NA,0.440171381003893,"k",NA,5,"inlab","MacIntel",NA,NA,NA
"307",36290,0,0,0,1206,"switch","number",NA,"low","noRew","star",167,"H",4,"","",NA,NA,"",NA,0.368381523003336,"d",NA,6,"inlab","MacIntel",NA,NA,NA
"308",36290,1,1,10,1216,"repeat","number","numRpt","low","noRew","hexagon",174,"F",4,"","",NA,NA,"",NA,0.4847834850043,"f",NA,7,"inlab","MacIntel",NA,NA,NA
"309",36290,0,0,0,1216,"repeat","number",NA,"low","noRew","hexagon",139,"S",4,"","",NA,NA,"",NA,0.317291636001755,"f",NA,8,"inlab","MacIntel",NA,NA,NA
"310",36290,0,1,0,1216,"switch","letter",NA,"low","noRew","star",146,"D",4,"","",NA,NA,"",NA,0.339871655003662,"k",NA,9,"inlab","MacIntel",NA,NA,NA
"311",36290,1,1,0,1216,"switch","number","numSwt","low","noRew","star",160,"B",4,"","",NA,NA,"",NA,0.463440446004824,"f",NA,10,"inlab","MacIntel",NA,NA,NA
"312",36290,1,0,10,1226,"switch","letter","lettSwt","low","noRew","hexagon",125,"W",4,"","",NA,NA,"",NA,0.455584759001795,"k",NA,11,"inlab","MacIntel",NA,NA,NA
"313",36290,1,0,0,1226,"repeat","letter","lettRpt","low","noRew","star",132,"U",4,"","",NA,NA,"",NA,0.543910973003221,"k",NA,12,"inlab","MacIntel",NA,NA,NA
"314",36290,1,0,1,1227,"switch","number","numSwt","low","noRew","hexagon",181,"Y",4,"","",NA,NA,"",NA,0.445484719002707,"f",NA,13,"inlab","MacIntel",NA,NA,NA
"315",36290,1,0,0,1227,"repeat","number","numRpt","low","noRew","star",167,"H",4,"","",NA,NA,"",NA,0.527202829001908,"f",NA,14,"inlab","MacIntel",NA,NA,NA
"316",36290,1,0,10,1237,"repeat","number","numRpt","low","noRew","hexagon",174,"F",4,"","",NA,NA,"",NA,0.48510912200436,"f",NA,15,"inlab","MacIntel",NA,NA,NA
"317",36290,1,0,10,1247,"repeat","number","numRpt","low","noRew","hexagon",181,"W",4,"","",NA,NA,"",NA,0.468014500002027,"f",NA,16,"inlab","MacIntel",NA,NA,NA
"318",36290,1,0,0,1247,"repeat","number","numRpt","low","noRew","star",125,"B",4,"","",NA,NA,"",NA,0.410679535001691,"d",NA,17,"inlab","MacIntel",NA,NA,NA
"319",36290,1,0,10,1257,"repeat","number","numRpt","low","noRew","hexagon",160,"D",4,"","",NA,NA,"",NA,0.438570865004294,"f",NA,18,"inlab","MacIntel",NA,NA,NA
"320",36290,0,0,0,1257,"switch","letter",NA,"low","noRew","star",146,"S",4,"","",NA,NA,"",NA,0.415350114002649,"j",NA,19,"inlab","MacIntel",NA,NA,NA
"321",36290,1,1,1,1258,"switch","number","numSwt","low","noRew","hexagon",132,"F",4,"","",NA,NA,"",NA,0.38506148000306,"d",NA,20,"inlab","MacIntel",NA,NA,NA
"322",36290,1,0,10,1268,"switch","letter","lettSwt","low","noRew","star",139,"Y",4,"","",NA,NA,"",NA,0.435509196002386,"k",NA,21,"inlab","MacIntel",NA,NA,NA
"323",36290,1,0,10,1278,"repeat","letter","lettRpt","low","noRew","star",174,"U",4,"","",NA,NA,"",NA,0.397683074002998,"k",NA,22,"inlab","MacIntel",NA,NA,NA
"324",36290,1,0,1,1279,"switch","number","numSwt","low","noRew","hexagon",167,"H",4,"","",NA,NA,"",NA,0.505902404001972,"f",NA,23,"inlab","MacIntel",NA,NA,NA
"325",36290,1,0,1,1280,"repeat","number","numRpt","low","noRew","hexagon",181,"B",4,"","",NA,NA,"",NA,0.358678355001757,"f",NA,24,"inlab","MacIntel",NA,NA,NA
"326",36290,1,0,1,1281,"switch","letter","lettSwt","low","noRew","star",174,"W",4,"","",NA,NA,"",NA,0.363670781003748,"k",NA,25,"inlab","MacIntel",NA,NA,NA
"327",36290,1,0,0,1281,"repeat","letter","lettRpt","low","noRew","star",139,"D",4,"","",NA,NA,"",NA,0.519781880004302,"j",NA,26,"inlab","MacIntel",NA,NA,NA
"328",36290,1,0,1,1282,"switch","number","numSwt","low","noRew","hexagon",132,"U",4,"","",NA,NA,"",NA,0.517641339003603,"d",NA,27,"inlab","MacIntel",NA,NA,NA
"329",36290,0,0,0,1282,"switch","letter",NA,"low","noRew","star",146,"H",4,"","",NA,NA,"",NA,0.372697242004506,"k",NA,28,"inlab","MacIntel",NA,NA,NA
"330",36290,0,1,0,1282,"repeat","letter",NA,"low","noRew","hexagon",125,"S",4,"","",NA,NA,"",NA,0.61473519500214,"j",NA,29,"inlab","MacIntel",NA,NA,NA
"331",36290,1,1,0,1282,"repeat","letter","lettRpt","low","noRew","star",160,"Y",4,"","",NA,NA,"",NA,0.697380772002361,"k",NA,30,"inlab","MacIntel",NA,NA,NA
"332",36290,1,0,1,1283,"repeat","letter","lettRpt","low","noRew","hexagon",167,"F",4,"","",NA,NA,"",NA,0.519570151001972,"j",NA,31,"inlab","MacIntel",NA,NA,NA
"333",36290,1,0,10,1293,"repeat","letter","lettRpt","high","noRew","triangle",160,"D",5,"","",NA,NA,"",NA,0.439563395000732,"j",NA,0,"inlab","MacIntel",NA,NA,NA
"334",36290,1,0,1,1294,"switch","number","numSwt","high","noRew","circle",139,"Y",5,"","",NA,NA,"",NA,0.391244344002189,"d",NA,1,"inlab","MacIntel",NA,NA,NA
"335",36290,1,0,0,1294,"switch","letter","lettSwt","high","noRew","triangle",181,"F",5,"","",NA,NA,"",NA,0.475677522004844,"j",NA,2,"inlab","MacIntel",NA,NA,NA
"336",36290,1,0,1,1295,"switch","number","numSwt","high","noRew","circle",174,"S",5,"","",NA,NA,"",NA,0.46788040300089,"f",NA,3,"inlab","MacIntel",NA,NA,NA
"337",36290,1,0,10,1305,"repeat","number","numRpt","high","noRew","circle",132,"B",5,"","",NA,NA,"",NA,0.338701661003142,"d",NA,4,"inlab","MacIntel",NA,NA,NA
"338",36290,0,0,0,1305,"repeat","number",NA,"high","noRew","triangle",146,"U",5,"","",NA,NA,"",NA,0.495988575003139,"f",NA,5,"inlab","MacIntel",NA,NA,NA
"339",36290,1,1,0,1305,"repeat","number","numRpt","high","noRew","triangle",125,"W",5,"","",NA,NA,"",NA,0.511239672003285,"d",NA,6,"inlab","MacIntel",NA,NA,NA
"340",36290,1,0,1,1306,"repeat","number","numRpt","high","noRew","circle",167,"H",5,"","",NA,NA,"",NA,0.461529926000367,"f",NA,7,"inlab","MacIntel",NA,NA,NA
"341",36290,1,0,1,1307,"repeat","number","numRpt","high","noRew","circle",160,"D",5,"","",NA,NA,"",NA,0.477035068004625,"f",NA,8,"inlab","MacIntel",NA,NA,NA
"342",36290,1,0,0,1307,"switch","letter","lettSwt","high","noRew","triangle",139,"Y",5,"","",NA,NA,"",NA,0.501809827001125,"k",NA,9,"inlab","MacIntel",NA,NA,NA
"343",36290,1,0,1,1308,"repeat","letter","lettRpt","high","noRew","circle",181,"F",5,"","",NA,NA,"",NA,0.517270719999942,"j",NA,10,"inlab","MacIntel",NA,NA,NA
"344",36290,1,0,0,1308,"repeat","letter","lettRpt","high","noRew","triangle",174,"S",5,"","",NA,NA,"",NA,0.467126732004545,"k",NA,11,"inlab","MacIntel",NA,NA,NA
"345",36290,1,0,1,1309,"switch","number","numSwt","high","noRew","circle",132,"B",5,"","",NA,NA,"",NA,0.667541917002382,"d",NA,12,"inlab","MacIntel",NA,NA,NA
"346",36290,1,0,0,1309,"switch","letter","lettSwt","high","noRew","triangle",146,"U",5,"","",NA,NA,"",NA,0.498660111003119,"k",NA,13,"inlab","MacIntel",NA,NA,NA
"347",36290,1,0,0,1309,"repeat","letter","lettRpt","high","noRew","triangle",125,"W",5,"","",NA,NA,"",NA,0.48185712900522,"k",NA,14,"inlab","MacIntel",NA,NA,NA
"348",36290,1,0,10,1319,"switch","number","numSwt","high","noRew","circle",167,"H",5,"","",NA,NA,"",NA,0.505167644001631,"f",NA,15,"inlab","MacIntel",NA,NA,NA
"349",36290,0,0,0,1319,"repeat","number",NA,"high","noRew","triangle",146,"U",5,"","",NA,NA,"",NA,0.447985041002539,"f",NA,16,"inlab","MacIntel",NA,NA,NA
"350",36290,1,1,1,1320,"repeat","number","numRpt","high","noRew","circle",125,"D",5,"","",NA,NA,"",NA,0.401588488002744,"d",NA,17,"inlab","MacIntel",NA,NA,NA
"351",36290,1,0,0,1320,"repeat","number","numRpt","high","noRew","triangle",160,"F",5,"","",NA,NA,"",NA,0.500774350002757,"f",NA,18,"inlab","MacIntel",NA,NA,NA
"352",36290,1,0,10,1330,"repeat","number","numRpt","high","noRew","circle",167,"W",5,"","",NA,NA,"",NA,0.45786063000196,"f",NA,19,"inlab","MacIntel",NA,NA,NA
"353",36290,1,0,1,1331,"repeat","number","numRpt","high","noRew","circle",181,"H",5,"","",NA,NA,"",NA,0.451411202004238,"f",NA,20,"inlab","MacIntel",NA,NA,NA
"354",36290,1,0,0,1331,"repeat","number","numRpt","high","noRew","triangle",139,"Y",5,"","",NA,NA,"",NA,0.459563184002036,"d",NA,21,"inlab","MacIntel",NA,NA,NA
"355",36290,1,0,1,1332,"repeat","number","numRpt","high","noRew","circle",174,"S",5,"","",NA,NA,"",NA,0.475386732003244,"f",NA,22,"inlab","MacIntel",NA,NA,NA
"356",36290,1,0,0,1332,"switch","letter","lettSwt","high","noRew","triangle",132,"B",5,"","",NA,NA,"",NA,0.51540813000247,"j",NA,23,"inlab","MacIntel",NA,NA,NA
"357",36290,1,0,1,1333,"repeat","letter","lettRpt","high","noRew","circle",174,"Y",5,"","",NA,NA,"",NA,0.489341957003489,"k",NA,24,"inlab","MacIntel",NA,NA,NA
"358",36290,1,0,10,1343,"repeat","letter","lettRpt","high","noRew","triangle",132,"U",5,"","",NA,NA,"",NA,0.424872444000357,"k",NA,25,"inlab","MacIntel",NA,NA,NA
"359",36290,1,0,1,1344,"repeat","letter","lettRpt","high","noRew","circle",160,"D",5,"","",NA,NA,"",NA,0.490143423005065,"j",NA,26,"inlab","MacIntel",NA,NA,NA
"360",36290,0,0,0,1344,"repeat","letter",NA,"high","noRew","triangle",139,"H",5,"","",NA,NA,"",NA,0.336958308002067,"k",NA,27,"inlab","MacIntel",NA,NA,NA
"361",36290,1,1,10,1354,"repeat","letter","lettRpt","high","noRew","circle",125,"B",5,"","",NA,NA,"",NA,0.486076530003629,"j",NA,28,"inlab","MacIntel",NA,NA,NA
"362",36290,1,0,0,1354,"repeat","letter","lettRpt","high","noRew","triangle",181,"S",5,"","",NA,NA,"",NA,0.477585712003929,"k",NA,29,"inlab","MacIntel",NA,NA,NA
"363",36290,0,0,0,1354,"switch","number",NA,"high","noRew","triangle",167,"F",5,"","",NA,NA,"",NA,0.350731096004893,"d",NA,30,"inlab","MacIntel",NA,NA,NA
"364",36290,1,1,10,1364,"repeat","number","numRpt","high","noRew","circle",146,"W",5,"","",NA,NA,"",NA,0.434921082003711,"d",NA,31,"inlab","MacIntel",NA,NA,NA
