"","participant","acc","E1","points_trial","points_cumul","alt","task","condition","rewExpect","rewCond","curr_shape","curr_topStim","curr_bottStim","blockNum","LShape_ID","RShape_ID","trainBlock","training.thisN","training_resp.keys","training_resp.rt","target_resp.rt","target_resp.keys","trials_norew.thisRepN","trials_rew.thisRepN","platform","OS","browser","xResolution","yResolution"
"1",42648,NA,NA,10,10,"","","training","","","",NA,"",NA,"circle","star",0,0,"l",2.45193554500293,NA,"",NA,NA,"inlab","MacIntel",NA,NA,NA
"2",42648,NA,NA,10,20,"","","training","","","",NA,"",NA,"star","circle",0,1,"a",0.712768877994677,NA,"",NA,NA,"inlab","MacIntel",NA,NA,NA
"3",42648,NA,NA,1,21,"","","training","","","",NA,"",NA,"star","hexagon",0,2,"l",1.64840273199661,NA,"",NA,NA,"inlab","MacIntel",NA,NA,NA
"4",42648,NA,NA,1,22,"","","training","","","",NA,"",NA,"hexagon","star",0,3,"l",1.60265943899867,NA,"",NA,NA,"inlab","MacIntel",NA,NA,NA
"5",42648,NA,NA,1,23,"","","training","","","",NA,"",NA,"circle","hexagon",0,4,"a",1.70558217699727,NA,"",NA,NA,"inlab","MacIntel",NA,NA,NA
"6",42648,NA,NA,10,33,"","","training","","","",NA,"",NA,"triangle","star",0,5,"l",0.936558937995869,NA,"",NA,NA,"inlab","MacIntel",NA,NA,NA
"7",42648,NA,NA,1,34,"","","training","","","",NA,"",NA,"hexagon","circle",0,6,"a",0.96841330800089,NA,"",NA,NA,"inlab","MacIntel",NA,NA,NA
"8",42648,NA,NA,10,44,"","","training","","","",NA,"",NA,"triangle","hexagon",0,7,"l",1.5688341770001,NA,"",NA,NA,"inlab","MacIntel",NA,NA,NA
"9",42648,NA,NA,10,54,"","","training","","","",NA,"",NA,"star","triangle",0,8,"a",1.77438080400316,NA,"",NA,NA,"inlab","MacIntel",NA,NA,NA
"10",42648,NA,NA,1,55,"","","training","","","",NA,"",NA,"circle","triangle",0,9,"a",1.18848653499299,NA,"",NA,NA,"inlab","MacIntel",NA,NA,NA
"11",42648,NA,NA,1,56,"","","training","","","",NA,"",NA,"hexagon","triangle",0,10,"a",1.42391811800189,NA,"",NA,NA,"inlab","MacIntel",NA,NA,NA
"12",42648,NA,NA,10,66,"","","training","","","",NA,"",NA,"triangle","circle",0,11,"a",1.16688155399606,NA,"",NA,NA,"inlab","MacIntel",NA,NA,NA
"13",42648,NA,NA,10,76,"","","training","","","",NA,"",NA,"triangle","star",0,12,"l",1.08443143199838,NA,"",NA,NA,"inlab","MacIntel",NA,NA,NA
"14",42648,NA,NA,10,86,"","","training","","","",NA,"",NA,"triangle","hexagon",0,13,"a",1.90370066100149,NA,"",NA,NA,"inlab","MacIntel",NA,NA,NA
"15",42648,NA,NA,10,96,"","","training","","","",NA,"",NA,"hexagon","circle",0,14,"l",2.75119159799942,NA,"",NA,NA,"inlab","MacIntel",NA,NA,NA
"16",42648,NA,NA,10,106,"","","training","","","",NA,"",NA,"star","circle",0,15,"a",1.35729102599726,NA,"",NA,NA,"inlab","MacIntel",NA,NA,NA
"17",42648,NA,NA,10,116,"","","training","","","",NA,"",NA,"hexagon","star",0,16,"l",0.99622948999604,NA,"",NA,NA,"inlab","MacIntel",NA,NA,NA
"18",42648,NA,NA,1,117,"","","training","","","",NA,"",NA,"circle","star",0,17,"l",1.68329790900316,NA,"",NA,NA,"inlab","MacIntel",NA,NA,NA
"19",42648,NA,NA,10,127,"","","training","","","",NA,"",NA,"star","triangle",0,18,"a",1.32491916899744,NA,"",NA,NA,"inlab","MacIntel",NA,NA,NA
"20",42648,NA,NA,1,128,"","","training","","","",NA,"",NA,"triangle","circle",0,19,"l",1.19501760699495,NA,"",NA,NA,"inlab","MacIntel",NA,NA,NA
"21",42648,NA,NA,1,129,"","","training","","","",NA,"",NA,"star","hexagon",0,20,"a",1.86427026299498,NA,"",NA,NA,"inlab","MacIntel",NA,NA,NA
"22",42648,NA,NA,10,139,"","","training","","","",NA,"",NA,"circle","triangle",0,21,"a",1.53300104099617,NA,"",NA,NA,"inlab","MacIntel",NA,NA,NA
"23",42648,NA,NA,1,140,"","","training","","","",NA,"",NA,"hexagon","triangle",0,22,"a",2.65954589300236,NA,"",NA,NA,"inlab","MacIntel",NA,NA,NA
"24",42648,NA,NA,1,141,"","","training","","","",NA,"",NA,"circle","hexagon",0,23,"a",1.14183851699636,NA,"",NA,NA,"inlab","MacIntel",NA,NA,NA
"25",42648,NA,NA,1,142,"","","training","","","",NA,"",NA,"triangle","hexagon",0,24,"l",3.41146597300394,NA,"",NA,NA,"inlab","MacIntel",NA,NA,NA
"26",42648,NA,NA,1,143,"","","training","","","",NA,"",NA,"star","hexagon",0,25,"l",2.26306147399737,NA,"",NA,NA,"inlab","MacIntel",NA,NA,NA
"27",42648,NA,NA,10,153,"","","training","","","",NA,"",NA,"star","triangle",0,26,"l",1.98993042100483,NA,"",NA,NA,"inlab","MacIntel",NA,NA,NA
"28",42648,NA,NA,1,154,"","","training","","","",NA,"",NA,"star","circle",0,27,"l",1.6652518109986,NA,"",NA,NA,"inlab","MacIntel",NA,NA,NA
"29",42648,NA,NA,1,155,"","","training","","","",NA,"",NA,"hexagon","star",0,28,"l",1.61089798000467,NA,"",NA,NA,"inlab","MacIntel",NA,NA,NA
"30",42648,NA,NA,1,156,"","","training","","","",NA,"",NA,"triangle","star",0,29,"l",0.806255000999954,NA,"",NA,NA,"inlab","MacIntel",NA,NA,NA
"31",42648,NA,NA,1,157,"","","training","","","",NA,"",NA,"hexagon","triangle",0,30,"a",1.90191676899849,NA,"",NA,NA,"inlab","MacIntel",NA,NA,NA
"32",42648,NA,NA,1,158,"","","training","","","",NA,"",NA,"circle","hexagon",0,31,"a",1.43762161999621,NA,"",NA,NA,"inlab","MacIntel",NA,NA,NA
"33",42648,NA,NA,10,168,"","","training","","","",NA,"",NA,"triangle","circle",0,32,"a",1.63289067300502,NA,"",NA,NA,"inlab","MacIntel",NA,NA,NA
"34",42648,NA,NA,1,169,"","","training","","","",NA,"",NA,"circle","triangle",0,33,"a",2.28383859799942,NA,"",NA,NA,"inlab","MacIntel",NA,NA,NA
"35",42648,NA,NA,1,170,"","","training","","","",NA,"",NA,"hexagon","circle",0,34,"a",1.63721285499923,NA,"",NA,NA,"inlab","MacIntel",NA,NA,NA
"36",42648,NA,NA,1,171,"","","training","","","",NA,"",NA,"circle","star",0,35,"a",1.57760717900237,NA,"",NA,NA,"inlab","MacIntel",NA,NA,NA
"37",42648,NA,NA,10,181,"","","training","","","",NA,"",NA,"circle","triangle",1,0,"l",1.64465044399549,NA,"",NA,NA,"inlab","MacIntel",NA,NA,NA
"38",42648,NA,NA,10,191,"","","training","","","",NA,"",NA,"triangle","star",1,1,"l",1.92871936699521,NA,"",NA,NA,"inlab","MacIntel",NA,NA,NA
"39",42648,NA,NA,1,192,"","","training","","","",NA,"",NA,"triangle","hexagon",1,2,"l",1.79190570199717,NA,"",NA,NA,"inlab","MacIntel",NA,NA,NA
"40",42648,NA,NA,1,193,"","","training","","","",NA,"",NA,"circle","star",1,3,"a",1.6290108579924,NA,"",NA,NA,"inlab","MacIntel",NA,NA,NA
"41",42648,NA,NA,10,203,"","","training","","","",NA,"",NA,"star","triangle",1,4,"l",1.2402494199996,NA,"",NA,NA,"inlab","MacIntel",NA,NA,NA
"42",42648,NA,NA,10,213,"","","training","","","",NA,"",NA,"star","circle",1,5,"a",1.15722000700043,NA,"",NA,NA,"inlab","MacIntel",NA,NA,NA
"43",42648,NA,NA,10,223,"","","training","","","",NA,"",NA,"star","hexagon",1,6,"a",1.26732607799204,NA,"",NA,NA,"inlab","MacIntel",NA,NA,NA
"44",42648,NA,NA,10,233,"","","training","","","",NA,"",NA,"hexagon","star",1,7,"l",1.52584276199923,NA,"",NA,NA,"inlab","MacIntel",NA,NA,NA
"45",42648,NA,NA,10,243,"","","training","","","",NA,"",NA,"triangle","circle",1,8,"a",0.933645240998885,NA,"",NA,NA,"inlab","MacIntel",NA,NA,NA
"46",42648,NA,NA,10,253,"","","training","","","",NA,"",NA,"hexagon","triangle",1,9,"a",1.02148638799554,NA,"",NA,NA,"inlab","MacIntel",NA,NA,NA
"47",42648,NA,NA,10,263,"","","training","","","",NA,"",NA,"circle","hexagon",1,10,"l",0.834793545000139,NA,"",NA,NA,"inlab","MacIntel",NA,NA,NA
"48",42648,NA,NA,10,273,"","","training","","","",NA,"",NA,"hexagon","circle",1,11,"a",0.567014375999861,NA,"",NA,NA,"inlab","MacIntel",NA,NA,NA
"49",42648,NA,NA,10,283,"","","training","","","",NA,"",NA,"star","circle",1,12,"a",0.589999702002387,NA,"",NA,NA,"inlab","MacIntel",NA,NA,NA
"50",42648,NA,NA,10,293,"","","training","","","",NA,"",NA,"triangle","hexagon",1,13,"l",0.826503055002831,NA,"",NA,NA,"inlab","MacIntel",NA,NA,NA
"51",42648,NA,NA,1,294,"","","training","","","",NA,"",NA,"star","hexagon",1,14,"a",1.0301952469963,NA,"",NA,NA,"inlab","MacIntel",NA,NA,NA
"52",42648,NA,NA,10,304,"","","training","","","",NA,"",NA,"hexagon","star",1,15,"a",1.41073784499895,NA,"",NA,NA,"inlab","MacIntel",NA,NA,NA
"53",42648,NA,NA,10,314,"","","training","","","",NA,"",NA,"circle","hexagon",1,16,"l",0.863228624999465,NA,"",NA,NA,"inlab","MacIntel",NA,NA,NA
"54",42648,NA,NA,1,315,"","","training","","","",NA,"",NA,"star","triangle",1,17,"a",1.45249050200073,NA,"",NA,NA,"inlab","MacIntel",NA,NA,NA
"55",42648,NA,NA,10,325,"","","training","","","",NA,"",NA,"circle","triangle",1,18,"l",1.7252392800001,NA,"",NA,NA,"inlab","MacIntel",NA,NA,NA
"56",42648,NA,NA,10,335,"","","training","","","",NA,"",NA,"hexagon","triangle",1,19,"a",1.88610343899927,NA,"",NA,NA,"inlab","MacIntel",NA,NA,NA
"57",42648,NA,NA,1,336,"","","training","","","",NA,"",NA,"hexagon","circle",1,20,"a",1.59768420700129,NA,"",NA,NA,"inlab","MacIntel",NA,NA,NA
"58",42648,NA,NA,1,337,"","","training","","","",NA,"",NA,"triangle","star",1,21,"l",1.46013776799373,NA,"",NA,NA,"inlab","MacIntel",NA,NA,NA
"59",42648,NA,NA,1,338,"","","training","","","",NA,"",NA,"circle","star",1,22,"l",1.11036876399885,NA,"",NA,NA,"inlab","MacIntel",NA,NA,NA
"60",42648,NA,NA,10,348,"","","training","","","",NA,"",NA,"triangle","circle",1,23,"a",2.02273988699744,NA,"",NA,NA,"inlab","MacIntel",NA,NA,NA
"61",42648,NA,NA,10,358,"","","training","","","",NA,"",NA,"triangle","star",1,24,"a",0.918462626999826,NA,"",NA,NA,"inlab","MacIntel",NA,NA,NA
"62",42648,NA,NA,10,368,"","","training","","","",NA,"",NA,"triangle","hexagon",1,25,"a",0.747910725003749,NA,"",NA,NA,"inlab","MacIntel",NA,NA,NA
"63",42648,NA,NA,1,369,"","","training","","","",NA,"",NA,"star","triangle",1,26,"l",1.86585886699322,NA,"",NA,NA,"inlab","MacIntel",NA,NA,NA
"64",42648,NA,NA,10,379,"","","training","","","",NA,"",NA,"triangle","circle",1,27,"a",1.43862835499749,NA,"",NA,NA,"inlab","MacIntel",NA,NA,NA
"65",42648,NA,NA,10,389,"","","training","","","",NA,"",NA,"star","circle",1,28,"a",2.01852800299821,NA,"",NA,NA,"inlab","MacIntel",NA,NA,NA
"66",42648,NA,NA,10,399,"","","training","","","",NA,"",NA,"circle","hexagon",1,29,"l",2.66090767399874,NA,"",NA,NA,"inlab","MacIntel",NA,NA,NA
"67",42648,NA,NA,1,400,"","","training","","","",NA,"",NA,"star","hexagon",1,30,"a",3.03923542499979,NA,"",NA,NA,"inlab","MacIntel",NA,NA,NA
"68",42648,NA,NA,10,410,"","","training","","","",NA,"",NA,"hexagon","triangle",1,31,"l",2.60213996899984,NA,"",NA,NA,"inlab","MacIntel",NA,NA,NA
"69",42648,NA,NA,10,420,"","","training","","","",NA,"",NA,"circle","star",1,32,"l",2.6126893010005,NA,"",NA,NA,"inlab","MacIntel",NA,NA,NA
"70",42648,NA,NA,1,421,"","","training","","","",NA,"",NA,"hexagon","circle",1,33,"l",3.05632861999766,NA,"",NA,NA,"inlab","MacIntel",NA,NA,NA
"71",42648,NA,NA,1,422,"","","training","","","",NA,"",NA,"circle","triangle",1,34,"l",1.41704953299632,NA,"",NA,NA,"inlab","MacIntel",NA,NA,NA
"72",42648,NA,NA,1,423,"","","training","","","",NA,"",NA,"hexagon","star",1,35,"l",1.42458433099819,NA,"",NA,NA,"inlab","MacIntel",NA,NA,NA
"73",42648,NA,NA,10,433,"","","training","","","",NA,"",NA,"hexagon","triangle",2,0,"l",1.45815446799679,NA,"",NA,NA,"inlab","MacIntel",NA,NA,NA
"74",42648,NA,NA,1,434,"","","training","","","",NA,"",NA,"hexagon","circle",2,1,"l",1.51662412999576,NA,"",NA,NA,"inlab","MacIntel",NA,NA,NA
"75",42648,NA,NA,10,444,"","","training","","","",NA,"",NA,"star","hexagon",2,2,"a",1.19571621799696,NA,"",NA,NA,"inlab","MacIntel",NA,NA,NA
"76",42648,NA,NA,10,454,"","","training","","","",NA,"",NA,"triangle","hexagon",2,3,"a",2.26450679299887,NA,"",NA,NA,"inlab","MacIntel",NA,NA,NA
"77",42648,NA,NA,1,455,"","","training","","","",NA,"",NA,"hexagon","star",2,4,"l",1.34886065299361,NA,"",NA,NA,"inlab","MacIntel",NA,NA,NA
"78",42648,NA,NA,10,465,"","","training","","","",NA,"",NA,"star","circle",2,5,"l",1.65190902999893,NA,"",NA,NA,"inlab","MacIntel",NA,NA,NA
"79",42648,NA,NA,10,475,"","","training","","","",NA,"",NA,"triangle","star",2,6,"a",1.46305233100429,NA,"",NA,NA,"inlab","MacIntel",NA,NA,NA
"80",42648,NA,NA,10,485,"","","training","","","",NA,"",NA,"circle","triangle",2,7,"l",2.11171930500132,NA,"",NA,NA,"inlab","MacIntel",NA,NA,NA
"81",42648,NA,NA,1,486,"","","training","","","",NA,"",NA,"circle","star",2,8,"a",1.47519710799679,NA,"",NA,NA,"inlab","MacIntel",NA,NA,NA
"82",42648,NA,NA,10,496,"","","training","","","",NA,"",NA,"star","triangle",2,9,"l",2.03447403699829,NA,"",NA,NA,"inlab","MacIntel",NA,NA,NA
"83",42648,NA,NA,1,497,"","","training","","","",NA,"",NA,"circle","hexagon",2,10,"a",1.91081559699524,NA,"",NA,NA,"inlab","MacIntel",NA,NA,NA
"84",42648,NA,NA,10,507,"","","training","","","",NA,"",NA,"triangle","circle",2,11,"a",3.97288949599897,NA,"",NA,NA,"inlab","MacIntel",NA,NA,NA
"85",42648,NA,NA,10,517,"","","training","","","",NA,"",NA,"star","circle",2,12,"a",1.2081813160039,NA,"",NA,NA,"inlab","MacIntel",NA,NA,NA
"86",42648,NA,NA,10,527,"","","training","","","",NA,"",NA,"circle","triangle",2,13,"l",2.23755108799378,NA,"",NA,NA,"inlab","MacIntel",NA,NA,NA
"87",42648,NA,NA,10,537,"","","training","","","",NA,"",NA,"triangle","hexagon",2,14,"a",2.1225263669985,NA,"",NA,NA,"inlab","MacIntel",NA,NA,NA
"88",42648,NA,NA,10,547,"","","training","","","",NA,"",NA,"triangle","circle",2,15,"a",1.15318983500038,NA,"",NA,NA,"inlab","MacIntel",NA,NA,NA
"89",42648,NA,NA,1,548,"","","training","","","",NA,"",NA,"circle","hexagon",2,16,"a",1.750539294997,NA,"",NA,NA,"inlab","MacIntel",NA,NA,NA
"90",42648,NA,NA,1,549,"","","training","","","",NA,"",NA,"star","hexagon",2,17,"a",1.94292893799866,NA,"",NA,NA,"inlab","MacIntel",NA,NA,NA
"91",42648,NA,NA,10,559,"","","training","","","",NA,"",NA,"star","triangle",2,18,"l",1.16765362299338,NA,"",NA,NA,"inlab","MacIntel",NA,NA,NA
"92",42648,NA,NA,10,569,"","","training","","","",NA,"",NA,"circle","star",2,19,"l",2.1569525140003,NA,"",NA,NA,"inlab","MacIntel",NA,NA,NA
"93",42648,NA,NA,10,579,"","","training","","","",NA,"",NA,"hexagon","triangle",2,20,"l",1.45936496699869,NA,"",NA,NA,"inlab","MacIntel",NA,NA,NA
"94",42648,NA,NA,10,589,"","","training","","","",NA,"",NA,"triangle","star",2,21,"a",1.30825815399294,NA,"",NA,NA,"inlab","MacIntel",NA,NA,NA
"95",42648,NA,NA,10,599,"","","training","","","",NA,"",NA,"hexagon","star",2,22,"l",2.23885702899861,NA,"",NA,NA,"inlab","MacIntel",NA,NA,NA
"96",42648,NA,NA,1,600,"","","training","","","",NA,"",NA,"hexagon","circle",2,23,"l",3.83297720800329,NA,"",NA,NA,"inlab","MacIntel",NA,NA,NA
"97",42648,NA,NA,1,601,"","","training","","","",NA,"",NA,"hexagon","circle",2,24,"a",1.55550133499492,NA,"",NA,NA,"inlab","MacIntel",NA,NA,NA
"98",42648,NA,NA,1,602,"","","training","","","",NA,"",NA,"triangle","star",2,25,"a",1.47396249299345,NA,"",NA,NA,"inlab","MacIntel",NA,NA,NA
"99",42648,NA,NA,10,612,"","","training","","","",NA,"",NA,"circle","star",2,26,"l",3.33952456299448,NA,"",NA,NA,"inlab","MacIntel",NA,NA,NA
"100",42648,NA,NA,10,622,"","","training","","","",NA,"",NA,"hexagon","triangle",2,27,"l",1.5046685779962,NA,"",NA,NA,"inlab","MacIntel",NA,NA,NA
"101",42648,NA,NA,1,623,"","","training","","","",NA,"",NA,"circle","triangle",2,28,"l",1.30056419899483,NA,"",NA,NA,"inlab","MacIntel",NA,NA,NA
"102",42648,NA,NA,10,633,"","","training","","","",NA,"",NA,"triangle","hexagon",2,29,"a",1.55744978699659,NA,"",NA,NA,"inlab","MacIntel",NA,NA,NA
"103",42648,NA,NA,1,634,"","","training","","","",NA,"",NA,"hexagon","star",2,30,"a",1.97892102699552,NA,"",NA,NA,"inlab","MacIntel",NA,NA,NA
"104",42648,NA,NA,1,635,"","","training","","","",NA,"",NA,"star","circle",2,31,"a",3.83218275599938,NA,"",NA,NA,"inlab","MacIntel",NA,NA,NA
"105",42648,NA,NA,10,645,"","","training","","","",NA,"",NA,"triangle","circle",2,32,"a",1.75454413099942,NA,"",NA,NA,"inlab","MacIntel",NA,NA,NA
"106",42648,NA,NA,10,655,"","","training","","","",NA,"",NA,"star","hexagon",2,33,"a",2.59549785000127,NA,"",NA,NA,"inlab","MacIntel",NA,NA,NA
"107",42648,NA,NA,10,665,"","","training","","","",NA,"",NA,"star","triangle",2,34,"l",2.62368736399367,NA,"",NA,NA,"inlab","MacIntel",NA,NA,NA
"108",42648,NA,NA,1,666,"","","training","","","",NA,"",NA,"circle","hexagon",2,35,"a",2.49836756199511,NA,"",NA,NA,"inlab","MacIntel",NA,NA,NA
"109",42648,1,0,0,666,"switch","number","numSwt","","noRew","circle",125,"D",0,"","",NA,NA,"",NA,0.794595496998227,"d",0,NA,"inlab","MacIntel",NA,NA,NA
"110",42648,1,0,0,666,"switch","letter","lettSwt","","noRew","triangle",181,"B",0,"","",NA,NA,"",NA,0.869434228996397,"j",1,NA,"inlab","MacIntel",NA,NA,NA
"111",42648,1,0,0,666,"switch","number","numSwt","","noRew","star",139,"Y",0,"","",NA,NA,"",NA,0.735658227000386,"d",2,NA,"inlab","MacIntel",NA,NA,NA
"112",42648,1,0,0,666,"switch","letter","lettSwt","","noRew","hexagon",174,"W",0,"","",NA,NA,"",NA,0.750081060999946,"k",3,NA,"inlab","MacIntel",NA,NA,NA
"113",42648,1,0,0,666,"switch","number","numSwt","","noRew","triangle",125,"D",0,"","",NA,NA,"",NA,1.06216556500294,"d",4,NA,"inlab","MacIntel",NA,NA,NA
"114",42648,1,0,0,666,"switch","letter","lettSwt","","noRew","hexagon",181,"B",0,"","",NA,NA,"",NA,0.679039490001742,"j",5,NA,"inlab","MacIntel",NA,NA,NA
"115",42648,1,0,0,666,"switch","number","numSwt","","noRew","star",139,"Y",0,"","",NA,NA,"",NA,1.67957730300259,"d",6,NA,"inlab","MacIntel",NA,NA,NA
"116",42648,1,0,0,666,"switch","letter","lettSwt","","noRew","circle",174,"W",0,"","",NA,NA,"",NA,1.52099348299816,"k",7,NA,"inlab","MacIntel",NA,NA,NA
"117",42648,1,0,0,666,"switch","number","numSwt","","noRew","hexagon",139,"F",0,"","",NA,NA,"",NA,0.741381156993157,"d",8,NA,"inlab","MacIntel",NA,NA,NA
"118",42648,1,0,0,666,"switch","letter","lettSwt","","noRew","circle",174,"B",0,"","",NA,NA,"",NA,0.669298319997324,"j",9,NA,"inlab","MacIntel",NA,NA,NA
"119",42648,1,0,0,666,"switch","number","numSwt","","noRew","hexagon",125,"H",0,"","",NA,NA,"",NA,0.710082320998481,"d",10,NA,"inlab","MacIntel",NA,NA,NA
"120",42648,1,0,0,666,"switch","letter","lettSwt","","noRew","circle",132,"W",0,"","",NA,NA,"",NA,0.542209893996187,"k",11,NA,"inlab","MacIntel",NA,NA,NA
"121",42648,1,0,0,666,"switch","number","numSwt","","noRew","circle",139,"S",0,"","",NA,NA,"",NA,0.79667494000023,"d",12,NA,"inlab","MacIntel",NA,NA,NA
"122",42648,1,0,0,666,"switch","letter","lettSwt","","noRew","hexagon",167,"D",0,"","",NA,NA,"",NA,0.745399557999917,"j",13,NA,"inlab","MacIntel",NA,NA,NA
"123",42648,1,0,0,666,"switch","number","numSwt","","noRew","hexagon",132,"F",0,"","",NA,NA,"",NA,0.695355625997763,"d",14,NA,"inlab","MacIntel",NA,NA,NA
"124",42648,1,0,0,666,"switch","letter","lettSwt","","noRew","triangle",160,"B",0,"","",NA,NA,"",NA,0.776028385000245,"j",15,NA,"inlab","MacIntel",NA,NA,NA
"125",42648,1,0,0,666,"switch","number","numSwt","","noRew","circle",181,"Y",0,"","",NA,NA,"",NA,0.716949372996169,"f",16,NA,"inlab","MacIntel",NA,NA,NA
"126",42648,1,0,0,666,"switch","letter","lettSwt","","noRew","hexagon",160,"B",0,"","",NA,NA,"",NA,0.540397124001174,"j",17,NA,"inlab","MacIntel",NA,NA,NA
"127",42648,1,0,0,666,"switch","number","numSwt","","noRew","star",125,"H",0,"","",NA,NA,"",NA,0.514213221998943,"d",18,NA,"inlab","MacIntel",NA,NA,NA
"128",42648,1,0,0,666,"switch","letter","lettSwt","","noRew","circle",167,"D",0,"","",NA,NA,"",NA,0.785931496000558,"j",19,NA,"inlab","MacIntel",NA,NA,NA
"129",42648,1,0,0,666,"switch","number","numSwt","","noRew","triangle",132,"D",0,"","",NA,NA,"",NA,1.59101615200052,"d",20,NA,"inlab","MacIntel",NA,NA,NA
"130",42648,1,0,0,666,"switch","letter","lettSwt","","noRew","star",160,"H",0,"","",NA,NA,"",NA,1.24409801599541,"j",21,NA,"inlab","MacIntel",NA,NA,NA
"131",42648,1,0,0,666,"switch","number","numSwt","","noRew","triangle",146,"F",0,"","",NA,NA,"",NA,0.750280282001768,"d",22,NA,"inlab","MacIntel",NA,NA,NA
"132",42648,1,0,0,666,"switch","letter","lettSwt","","noRew","circle",174,"Y",0,"","",NA,NA,"",NA,0.604806780997023,"k",23,NA,"inlab","MacIntel",NA,NA,NA
"133",42648,1,0,0,666,"switch","number","numSwt","","noRew","triangle",181,"D",0,"","",NA,NA,"",NA,0.752141328004654,"f",24,NA,"inlab","MacIntel",NA,NA,NA
"134",42648,1,0,0,666,"switch","letter","lettSwt","","noRew","star",132,"Y",0,"","",NA,NA,"",NA,0.63776100299583,"k",25,NA,"inlab","MacIntel",NA,NA,NA
"135",42648,1,0,0,666,"switch","number","numSwt","","noRew","circle",167,"B",0,"","",NA,NA,"",NA,1.70491042600042,"f",26,NA,"inlab","MacIntel",NA,NA,NA
"136",42648,1,0,0,666,"switch","letter","lettSwt","","noRew","star",125,"W",0,"","",NA,NA,"",NA,1.21550093499536,"k",27,NA,"inlab","MacIntel",NA,NA,NA
"137",42648,1,0,0,666,"switch","number","numSwt","","noRew","hexagon",125,"Y",0,"","",NA,NA,"",NA,1.17007841599843,"d",28,NA,"inlab","MacIntel",NA,NA,NA
"138",42648,1,0,0,666,"switch","letter","lettSwt","","noRew","star",132,"D",0,"","",NA,NA,"",NA,1.32849920699664,"j",29,NA,"inlab","MacIntel",NA,NA,NA
"139",42648,1,0,0,666,"switch","number","numSwt","","noRew","circle",174,"H",0,"","",NA,NA,"",NA,1.07092211399868,"f",30,NA,"inlab","MacIntel",NA,NA,NA
"140",42648,1,0,0,666,"switch","letter","lettSwt","","noRew","hexagon",146,"S",0,"","",NA,NA,"",NA,1.53561704099411,"k",31,NA,"inlab","MacIntel",NA,NA,NA
"141",42648,1,0,0,666,"switch","number","numSwt","","noRew","circle",132,"S",0,"","",NA,NA,"",NA,1.36469518599915,"d",32,NA,"inlab","MacIntel",NA,NA,NA
"142",42648,1,0,0,666,"switch","letter","lettSwt","","noRew","star",167,"Y",0,"","",NA,NA,"",NA,0.833611181995366,"k",33,NA,"inlab","MacIntel",NA,NA,NA
"143",42648,1,0,0,666,"switch","number","numSwt","","noRew","star",160,"F",0,"","",NA,NA,"",NA,0.700788427995576,"f",34,NA,"inlab","MacIntel",NA,NA,NA
"144",42648,1,0,0,666,"switch","letter","lettSwt","","noRew","triangle",139,"W",0,"","",NA,NA,"",NA,0.892797821994463,"k",35,NA,"inlab","MacIntel",NA,NA,NA
"145",42648,1,0,0,666,"switch","number","numSwt","","noRew","hexagon",160,"H",0,"","",NA,NA,"",NA,1.132951435,"f",36,NA,"inlab","MacIntel",NA,NA,NA
"146",42648,1,0,0,666,"switch","letter","lettSwt","","noRew","star",139,"Y",0,"","",NA,NA,"",NA,0.708991072002391,"k",37,NA,"inlab","MacIntel",NA,NA,NA
"147",42648,1,0,0,666,"switch","number","numSwt","","noRew","hexagon",125,"F",0,"","",NA,NA,"",NA,0.891535312992346,"d",38,NA,"inlab","MacIntel",NA,NA,NA
"148",42648,1,0,0,666,"switch","letter","lettSwt","","noRew","star",174,"D",0,"","",NA,NA,"",NA,1.17131003300165,"j",39,NA,"inlab","MacIntel",NA,NA,NA
"149",42648,1,0,0,666,"switch","number","numSwt","","noRew","star",174,"F",0,"","",NA,NA,"",NA,1.37653536500147,"f",40,NA,"inlab","MacIntel",NA,NA,NA
"150",42648,1,0,0,666,"switch","letter","lettSwt","","noRew","circle",125,"U",0,"","",NA,NA,"",NA,1.14215387399599,"k",41,NA,"inlab","MacIntel",NA,NA,NA
"151",42648,1,0,0,666,"switch","number","numSwt","","noRew","hexagon",181,"B",0,"","",NA,NA,"",NA,1.10045821899257,"f",42,NA,"inlab","MacIntel",NA,NA,NA
"152",42648,1,0,0,666,"switch","letter","lettSwt","","noRew","circle",139,"Y",0,"","",NA,NA,"",NA,0.836828495994268,"k",43,NA,"inlab","MacIntel",NA,NA,NA
"153",42648,1,0,0,666,"switch","number","numSwt","","noRew","triangle",139,"U",0,"","",NA,NA,"",NA,1.05424830300035,"d",44,NA,"inlab","MacIntel",NA,NA,NA
"154",42648,1,0,0,666,"switch","letter","lettSwt","","noRew","circle",174,"S",0,"","",NA,NA,"",NA,1.76936341900728,"k",45,NA,"inlab","MacIntel",NA,NA,NA
"155",42648,1,0,0,666,"switch","number","numSwt","","noRew","circle",167,"D",0,"","",NA,NA,"",NA,1.02995465500862,"f",46,NA,"inlab","MacIntel",NA,NA,NA
"156",42648,1,0,0,666,"switch","letter","lettSwt","","noRew","triangle",146,"H",0,"","",NA,NA,"",NA,1.54541921700002,"j",47,NA,"inlab","MacIntel",NA,NA,NA
"157",42648,1,0,0,666,"switch","number","numSwt","","noRew","circle",146,"H",0,"","",NA,NA,"",NA,1.96687578099954,"d",48,NA,"inlab","MacIntel",NA,NA,NA
"158",42648,1,0,0,666,"switch","letter","lettSwt","","noRew","hexagon",181,"B",0,"","",NA,NA,"",NA,1.49118313699728,"j",49,NA,"inlab","MacIntel",NA,NA,NA
"159",42648,1,0,0,666,"switch","number","numSwt","","noRew","circle",174,"U",0,"","",NA,NA,"",NA,1.01945901900763,"f",50,NA,"inlab","MacIntel",NA,NA,NA
"160",42648,1,0,0,666,"switch","letter","lettSwt","","noRew","hexagon",132,"D",0,"","",NA,NA,"",NA,0.91808575799223,"j",51,NA,"inlab","MacIntel",NA,NA,NA
"161",42648,1,0,0,666,"switch","number","numSwt","","noRew","circle",174,"U",0,"","",NA,NA,"",NA,1.3736256659904,"f",52,NA,"inlab","MacIntel",NA,NA,NA
"162",42648,1,0,0,666,"switch","letter","lettSwt","","noRew","triangle",167,"F",0,"","",NA,NA,"",NA,1.39526150999882,"j",53,NA,"inlab","MacIntel",NA,NA,NA
"163",42648,1,0,0,666,"switch","number","numSwt","","noRew","hexagon",132,"Y",0,"","",NA,NA,"",NA,1.07103084299888,"d",54,NA,"inlab","MacIntel",NA,NA,NA
"164",42648,1,0,0,666,"switch","letter","lettSwt","","noRew","star",139,"D",0,"","",NA,NA,"",NA,0.861891209002351,"j",55,NA,"inlab","MacIntel",NA,NA,NA
"165",42648,1,0,0,666,"switch","number","numSwt","","noRew","hexagon",174,"W",0,"","",NA,NA,"",NA,1.24876922099793,"f",56,NA,"inlab","MacIntel",NA,NA,NA
"166",42648,1,0,0,666,"switch","letter","lettSwt","","noRew","star",139,"Y",0,"","",NA,NA,"",NA,1.09135619799781,"k",57,NA,"inlab","MacIntel",NA,NA,NA
"167",42648,1,0,0,666,"switch","number","numSwt","","noRew","circle",146,"S",0,"","",NA,NA,"",NA,1.05174190699472,"d",58,NA,"inlab","MacIntel",NA,NA,NA
"168",42648,1,0,0,666,"switch","letter","lettSwt","","noRew","triangle",160,"F",0,"","",NA,NA,"",NA,1.01326849599718,"j",59,NA,"inlab","MacIntel",NA,NA,NA
"169",42648,1,0,0,666,"switch","number","numSwt","","noRew","hexagon",181,"W",0,"","",NA,NA,"",NA,1.28765048299101,"f",60,NA,"inlab","MacIntel",NA,NA,NA
"170",42648,1,0,0,666,"switch","letter","lettSwt","","noRew","circle",174,"H",0,"","",NA,NA,"",NA,1.7292397209967,"j",61,NA,"inlab","MacIntel",NA,NA,NA
"171",42648,1,0,0,666,"switch","number","numSwt","","noRew","circle",167,"Y",0,"","",NA,NA,"",NA,1.02365661099611,"f",62,NA,"inlab","MacIntel",NA,NA,NA
"172",42648,1,0,0,666,"switch","letter","lettSwt","","noRew","triangle",139,"S",0,"","",NA,NA,"",NA,1.10624101299618,"k",63,NA,"inlab","MacIntel",NA,NA,NA
"173",42648,1,0,10,676,"switch","number","numSwt","high","noRew","triangle",181,"U",0,"","",NA,NA,"",NA,0.714129415995558,"f",NA,0,"inlab","MacIntel",NA,NA,NA
"174",42648,1,0,1,677,"repeat","number","numRpt","high","noRew","circle",132,"W",0,"","",NA,NA,"",NA,0.552132843004074,"d",NA,1,"inlab","MacIntel",NA,NA,NA
"175",42648,1,0,1,678,"repeat","number","numRpt","high","noRew","circle",146,"H",0,"","",NA,NA,"",NA,0.623518681997666,"d",NA,2,"inlab","MacIntel",NA,NA,NA
"176",42648,1,0,1,679,"repeat","number","numRpt","high","noRew","triangle",160,"S",0,"","",NA,NA,"",NA,0.945442610987811,"f",NA,3,"inlab","MacIntel",NA,NA,NA
"177",42648,1,0,1,680,"repeat","number","numRpt","high","noRew","circle",139,"Y",0,"","",NA,NA,"",NA,0.600936773989815,"d",NA,4,"inlab","MacIntel",NA,NA,NA
"178",42648,1,0,10,690,"repeat","number","numRpt","high","noRew","triangle",174,"B",0,"","",NA,NA,"",NA,0.773218675007229,"f",NA,5,"inlab","MacIntel",NA,NA,NA
"179",42648,1,0,1,691,"repeat","number","numRpt","high","noRew","circle",125,"F",0,"","",NA,NA,"",NA,0.535989850992337,"d",NA,6,"inlab","MacIntel",NA,NA,NA
"180",42648,1,0,10,701,"repeat","number","numRpt","high","noRew","triangle",167,"D",0,"","",NA,NA,"",NA,0.480601438001031,"f",NA,7,"inlab","MacIntel",NA,NA,NA
"181",42648,1,0,1,702,"repeat","number","numRpt","high","noRew","circle",181,"U",0,"","",NA,NA,"",NA,0.592952404011157,"f",NA,8,"inlab","MacIntel",NA,NA,NA
"182",42648,1,0,10,712,"repeat","number","numRpt","high","noRew","triangle",132,"W",0,"","",NA,NA,"",NA,0.685896016992046,"d",NA,9,"inlab","MacIntel",NA,NA,NA
"183",42648,1,0,10,722,"repeat","number","numRpt","high","noRew","triangle",146,"H",0,"","",NA,NA,"",NA,0.669629622992943,"d",NA,10,"inlab","MacIntel",NA,NA,NA
"184",42648,1,0,1,723,"repeat","number","numRpt","high","noRew","circle",160,"S",0,"","",NA,NA,"",NA,0.622265091005829,"f",NA,11,"inlab","MacIntel",NA,NA,NA
"185",42648,1,0,1,724,"switch","letter","lettSwt","high","noRew","circle",139,"Y",0,"","",NA,NA,"",NA,0.93927707101102,"k",NA,12,"inlab","MacIntel",NA,NA,NA
"186",42648,1,0,10,734,"repeat","letter","lettRpt","high","noRew","triangle",174,"B",0,"","",NA,NA,"",NA,0.634543800988467,"j",NA,13,"inlab","MacIntel",NA,NA,NA
"187",42648,1,0,0,734,"switch","number","numSwt","high","noRew","triangle",125,"F",0,"","",NA,NA,"",NA,1.5323459180072,"d",NA,14,"inlab","MacIntel",NA,NA,NA
"188",42648,1,0,10,744,"repeat","number","numRpt","high","noRew","circle",167,"D",0,"","",NA,NA,"",NA,0.5063707389927,"f",NA,15,"inlab","MacIntel",NA,NA,NA
"189",42648,1,0,10,754,"repeat","number","numRpt","high","noRew","circle",174,"W",0,"","",NA,NA,"",NA,0.508175914001185,"f",NA,16,"inlab","MacIntel",NA,NA,NA
"190",42648,1,0,10,764,"switch","letter","lettSwt","high","noRew","triangle",146,"B",0,"","",NA,NA,"",NA,0.514672971999971,"j",NA,17,"inlab","MacIntel",NA,NA,NA
"191",42648,1,0,10,774,"repeat","letter","lettRpt","high","noRew","triangle",132,"H",0,"","",NA,NA,"",NA,0.595623931003502,"j",NA,18,"inlab","MacIntel",NA,NA,NA
"192",42648,1,0,1,775,"repeat","letter","lettRpt","high","noRew","circle",167,"D",0,"","",NA,NA,"",NA,0.487796789006097,"j",NA,19,"inlab","MacIntel",NA,NA,NA
"193",42648,1,0,10,785,"switch","number","numSwt","high","noRew","triangle",125,"F",0,"","",NA,NA,"",NA,0.560188046991243,"d",NA,20,"inlab","MacIntel",NA,NA,NA
"194",42648,1,0,1,786,"repeat","number","numRpt","high","noRew","circle",181,"S",0,"","",NA,NA,"",NA,0.724943901004735,"f",NA,21,"inlab","MacIntel",NA,NA,NA
"195",42648,1,0,1,787,"repeat","number","numRpt","high","noRew","circle",139,"U",0,"","",NA,NA,"",NA,0.644710900000064,"d",NA,22,"inlab","MacIntel",NA,NA,NA
"196",42648,1,0,10,797,"repeat","number","numRpt","high","noRew","triangle",160,"Y",0,"","",NA,NA,"",NA,0.528165987008833,"f",NA,23,"inlab","MacIntel",NA,NA,NA
"197",42648,1,0,1,798,"switch","letter","lettSwt","high","noRew","circle",174,"S",0,"","",NA,NA,"",NA,0.582872850995045,"k",NA,24,"inlab","MacIntel",NA,NA,NA
"198",42648,1,0,10,808,"switch","number","numSwt","high","noRew","triangle",139,"H",0,"","",NA,NA,"",NA,0.75654726200446,"d",NA,25,"inlab","MacIntel",NA,NA,NA
"199",42648,1,0,1,809,"repeat","number","numRpt","high","noRew","triangle",167,"Y",0,"","",NA,NA,"",NA,0.721723367998493,"f",NA,26,"inlab","MacIntel",NA,NA,NA
"200",42648,1,0,1,810,"switch","letter","lettSwt","high","noRew","circle",146,"B",0,"","",NA,NA,"",NA,0.46617004199652,"j",NA,27,"inlab","MacIntel",NA,NA,NA
"201",42648,1,0,10,820,"switch","number","numSwt","high","noRew","triangle",160,"W",0,"","",NA,NA,"",NA,0.556083706003847,"f",NA,28,"inlab","MacIntel",NA,NA,NA
"202",42648,1,0,1,821,"repeat","number","numRpt","high","noRew","circle",125,"F",0,"","",NA,NA,"",NA,0.977622984995833,"d",NA,29,"inlab","MacIntel",NA,NA,NA
"203",42648,1,0,1,822,"repeat","number","numRpt","high","noRew","triangle",181,"D",0,"","",NA,NA,"",NA,0.662754542994662,"f",NA,30,"inlab","MacIntel",NA,NA,NA
"204",42648,1,0,1,823,"switch","letter","lettSwt","high","noRew","circle",132,"U",0,"","",NA,NA,"",NA,0.521215645989287,"k",NA,31,"inlab","MacIntel",NA,NA,NA
"205",42648,1,0,1,824,"switch","number","numSwt","high","noRew","circle",174,"H",1,"","",NA,NA,"",NA,0.471885321996524,"f",NA,0,"inlab","MacIntel",NA,NA,NA
"206",42648,1,0,0,824,"switch","letter","lettSwt","high","noRew","triangle",146,"W",1,"","",NA,NA,"",NA,0.529184201994212,"k",NA,1,"inlab","MacIntel",NA,NA,NA
"207",42648,1,0,1,825,"switch","number","numSwt","high","noRew","triangle",160,"Y",1,"","",NA,NA,"",NA,0.488660461007385,"f",NA,2,"inlab","MacIntel",NA,NA,NA
"208",42648,1,0,1,826,"switch","letter","lettSwt","high","noRew","circle",139,"U",1,"","",NA,NA,"",NA,0.514640634995885,"k",NA,3,"inlab","MacIntel",NA,NA,NA
"209",42648,1,0,1,827,"repeat","letter","lettRpt","high","noRew","circle",167,"B",1,"","",NA,NA,"",NA,0.689062310004374,"j",NA,4,"inlab","MacIntel",NA,NA,NA
"210",42648,1,0,0,827,"switch","number","numSwt","high","noRew","triangle",132,"D",1,"","",NA,NA,"",NA,0.626350762002403,"d",NA,5,"inlab","MacIntel",NA,NA,NA
"211",42648,1,0,1,828,"repeat","number","numRpt","high","noRew","circle",181,"F",1,"","",NA,NA,"",NA,0.63804792900919,"f",NA,6,"inlab","MacIntel",NA,NA,NA
"212",42648,1,0,10,838,"repeat","number","numRpt","high","noRew","triangle",125,"S",1,"","",NA,NA,"",NA,0.576122976999613,"d",NA,7,"inlab","MacIntel",NA,NA,NA
"213",42648,1,0,1,839,"switch","letter","lettSwt","high","noRew","circle",174,"H",1,"","",NA,NA,"",NA,0.748969264997868,"j",NA,8,"inlab","MacIntel",NA,NA,NA
"214",42648,1,0,0,839,"repeat","letter","lettRpt","high","noRew","triangle",146,"W",1,"","",NA,NA,"",NA,0.668429557990748,"k",NA,9,"inlab","MacIntel",NA,NA,NA
"215",42648,1,0,0,839,"repeat","letter","lettRpt","high","noRew","triangle",160,"Y",1,"","",NA,NA,"",NA,0.81202979599766,"k",NA,10,"inlab","MacIntel",NA,NA,NA
"216",42648,1,0,1,840,"repeat","letter","lettRpt","high","noRew","circle",139,"U",1,"","",NA,NA,"",NA,0.432422327998211,"k",NA,11,"inlab","MacIntel",NA,NA,NA
"217",42648,1,0,0,840,"repeat","letter","lettRpt","high","noRew","triangle",167,"B",1,"","",NA,NA,"",NA,0.571660073997919,"j",NA,12,"inlab","MacIntel",NA,NA,NA
"218",42648,1,0,1,841,"switch","number","numSwt","high","noRew","circle",132,"D",1,"","",NA,NA,"",NA,0.53736755400314,"d",NA,13,"inlab","MacIntel",NA,NA,NA
"219",42648,1,0,10,851,"repeat","number","numRpt","high","noRew","triangle",181,"F",1,"","",NA,NA,"",NA,0.52818576800928,"f",NA,14,"inlab","MacIntel",NA,NA,NA
"220",42648,1,0,1,852,"repeat","number","numRpt","high","noRew","circle",125,"S",1,"","",NA,NA,"",NA,0.511859111997182,"d",NA,15,"inlab","MacIntel",NA,NA,NA
"221",42648,1,0,0,852,"repeat","number","numRpt","high","noRew","triangle",146,"F",1,"","",NA,NA,"",NA,0.768128077994334,"d",NA,16,"inlab","MacIntel",NA,NA,NA
"222",42648,1,0,10,862,"repeat","number","numRpt","high","noRew","circle",167,"B",1,"","",NA,NA,"",NA,0.605777635995764,"f",NA,17,"inlab","MacIntel",NA,NA,NA
"223",42648,1,0,10,872,"repeat","number","numRpt","high","noRew","triangle",174,"U",1,"","",NA,NA,"",NA,0.538157472998137,"f",NA,18,"inlab","MacIntel",NA,NA,NA
"224",42648,1,0,1,873,"repeat","number","numRpt","high","noRew","circle",139,"S",1,"","",NA,NA,"",NA,0.449147503997665,"d",NA,19,"inlab","MacIntel",NA,NA,NA
"225",42648,1,0,1,874,"repeat","number","numRpt","high","noRew","circle",132,"D",1,"","",NA,NA,"",NA,0.444011521991342,"d",NA,20,"inlab","MacIntel",NA,NA,NA
"226",42648,1,0,10,884,"repeat","number","numRpt","high","noRew","triangle",181,"W",1,"","",NA,NA,"",NA,0.438083803004702,"f",NA,21,"inlab","MacIntel",NA,NA,NA
"227",42648,1,0,1,885,"repeat","number","numRpt","high","noRew","circle",160,"H",1,"","",NA,NA,"",NA,0.639949428004911,"f",NA,22,"inlab","MacIntel",NA,NA,NA
"228",42648,1,0,10,895,"repeat","number","numRpt","high","noRew","triangle",125,"Y",1,"","",NA,NA,"",NA,0.460153970998363,"d",NA,23,"inlab","MacIntel",NA,NA,NA
"229",42648,1,0,0,895,"repeat","number","numRpt","high","noRew","triangle",139,"D",1,"","",NA,NA,"",NA,1.06173295799817,"d",NA,24,"inlab","MacIntel",NA,NA,NA
"230",42648,1,0,1,896,"switch","letter","lettSwt","high","noRew","circle",174,"W",1,"","",NA,NA,"",NA,0.366449228007696,"k",NA,25,"inlab","MacIntel",NA,NA,NA
"231",42648,1,0,1,897,"repeat","letter","lettRpt","high","noRew","circle",132,"Y",1,"","",NA,NA,"",NA,0.47742621198995,"k",NA,26,"inlab","MacIntel",NA,NA,NA
"232",42648,0,0,0,897,"repeat","letter",NA,"high","noRew","triangle",160,"H",1,"","",NA,NA,"",NA,0.49311658499937,"k",NA,27,"inlab","MacIntel",NA,NA,NA
"233",42648,1,1,1,898,"switch","number","numSwt","high","noRew","circle",181,"B",1,"","",NA,NA,"",NA,0.527399880986195,"f",NA,28,"inlab","MacIntel",NA,NA,NA
"234",42648,1,0,10,908,"repeat","number","numRpt","high","noRew","triangle",146,"U",1,"","",NA,NA,"",NA,0.542599868989782,"d",NA,29,"inlab","MacIntel",NA,NA,NA
"235",42648,1,0,1,909,"repeat","number","numRpt","high","noRew","circle",167,"S",1,"","",NA,NA,"",NA,0.534493946994189,"f",NA,30,"inlab","MacIntel",NA,NA,NA
"236",42648,1,0,0,909,"switch","letter","lettSwt","high","noRew","triangle",125,"F",1,"","",NA,NA,"",NA,0.638178451001295,"j",NA,31,"inlab","MacIntel",NA,NA,NA
"237",42648,0,0,0,909,"switch","number",NA,"low","noRew","star",174,"D",2,"","",NA,NA,"",NA,0.475006630003918,"d",NA,0,"inlab","MacIntel",NA,NA,NA
"238",42648,1,1,10,919,"repeat","number","numRpt","low","noRew","hexagon",181,"B",2,"","",NA,NA,"",NA,0.45176450200961,"f",NA,1,"inlab","MacIntel",NA,NA,NA
"239",42648,1,0,10,929,"repeat","number","numRpt","low","noRew","hexagon",146,"W",2,"","",NA,NA,"",NA,0.591018107006676,"d",NA,2,"inlab","MacIntel",NA,NA,NA
"240",42648,1,0,0,929,"repeat","number","numRpt","low","noRew","star",167,"Y",2,"","",NA,NA,"",NA,0.667884911003057,"f",NA,3,"inlab","MacIntel",NA,NA,NA
"241",42648,0,0,0,929,"repeat","number",NA,"low","noRew","hexagon",132,"F",2,"","",NA,NA,"",NA,0.59637453200412,"f",NA,4,"inlab","MacIntel",NA,NA,NA
"242",42648,1,1,0,929,"repeat","number","numRpt","low","noRew","star",139,"S",2,"","",NA,NA,"",NA,0.78510648199881,"d",NA,5,"inlab","MacIntel",NA,NA,NA
"243",42648,1,0,1,930,"repeat","number","numRpt","low","noRew","hexagon",125,"H",2,"","",NA,NA,"",NA,0.533951713994611,"d",NA,6,"inlab","MacIntel",NA,NA,NA
"244",42648,1,0,0,930,"repeat","number","numRpt","low","noRew","star",160,"U",2,"","",NA,NA,"",NA,0.549531224998645,"f",NA,7,"inlab","MacIntel",NA,NA,NA
"245",42648,1,0,1,931,"repeat","number","numRpt","low","noRew","star",174,"D",2,"","",NA,NA,"",NA,0.476390151001397,"f",NA,8,"inlab","MacIntel",NA,NA,NA
"246",42648,1,0,1,932,"repeat","number","numRpt","low","noRew","hexagon",181,"B",2,"","",NA,NA,"",NA,0.465181138002663,"f",NA,9,"inlab","MacIntel",NA,NA,NA
"247",42648,1,0,0,932,"repeat","number","numRpt","low","noRew","star",146,"W",2,"","",NA,NA,"",NA,0.543334654998034,"d",NA,10,"inlab","MacIntel",NA,NA,NA
"248",42648,1,0,10,942,"repeat","number","numRpt","low","noRew","hexagon",167,"Y",2,"","",NA,NA,"",NA,0.492821225008811,"f",NA,11,"inlab","MacIntel",NA,NA,NA
"249",42648,1,0,10,952,"repeat","number","numRpt","low","noRew","hexagon",132,"F",2,"","",NA,NA,"",NA,0.414199812003062,"d",NA,12,"inlab","MacIntel",NA,NA,NA
"250",42648,1,0,1,953,"repeat","number","numRpt","low","noRew","star",139,"S",2,"","",NA,NA,"",NA,0.449215197993908,"d",NA,13,"inlab","MacIntel",NA,NA,NA
"251",42648,1,0,1,954,"repeat","number","numRpt","low","noRew","hexagon",125,"H",2,"","",NA,NA,"",NA,0.555592406002688,"d",NA,14,"inlab","MacIntel",NA,NA,NA
"252",42648,1,0,0,954,"repeat","number","numRpt","low","noRew","star",160,"U",2,"","",NA,NA,"",NA,0.634633313995437,"f",NA,15,"inlab","MacIntel",NA,NA,NA
"253",42648,1,0,1,955,"switch","letter","lettSwt","low","noRew","hexagon",174,"B",2,"","",NA,NA,"",NA,0.42900162099977,"j",NA,16,"inlab","MacIntel",NA,NA,NA
"254",42648,1,0,0,955,"repeat","letter","lettRpt","low","noRew","star",146,"U",2,"","",NA,NA,"",NA,0.624377219995949,"k",NA,17,"inlab","MacIntel",NA,NA,NA
"255",42648,1,0,10,965,"switch","number","numSwt","low","noRew","star",167,"S",2,"","",NA,NA,"",NA,0.50029091599572,"f",NA,18,"inlab","MacIntel",NA,NA,NA
"256",42648,1,0,10,975,"repeat","number","numRpt","low","noRew","hexagon",132,"Y",2,"","",NA,NA,"",NA,0.509072361994185,"d",NA,19,"inlab","MacIntel",NA,NA,NA
"257",42648,1,0,1,976,"switch","letter","lettSwt","low","noRew","hexagon",125,"H",2,"","",NA,NA,"",NA,0.653048405001755,"j",NA,20,"inlab","MacIntel",NA,NA,NA
"258",42648,1,0,0,976,"switch","number","numSwt","low","noRew","star",139,"F",2,"","",NA,NA,"",NA,0.566909197004861,"d",NA,21,"inlab","MacIntel",NA,NA,NA
"259",42648,1,0,10,986,"repeat","number","numRpt","low","noRew","hexagon",181,"W",2,"","",NA,NA,"",NA,0.699584600995877,"f",NA,22,"inlab","MacIntel",NA,NA,NA
"260",42648,1,0,0,986,"repeat","number","numRpt","low","noRew","star",160,"D",2,"","",NA,NA,"",NA,0.56438704500033,"f",NA,23,"inlab","MacIntel",NA,NA,NA
"261",42648,1,0,1,987,"repeat","number","numRpt","low","noRew","hexagon",125,"H",2,"","",NA,NA,"",NA,0.634481041008257,"d",NA,24,"inlab","MacIntel",NA,NA,NA
"262",42648,1,0,0,987,"repeat","number","numRpt","low","noRew","star",160,"D",2,"","",NA,NA,"",NA,0.651582462000079,"f",NA,25,"inlab","MacIntel",NA,NA,NA
"263",42648,1,0,1,988,"switch","letter","lettSwt","low","noRew","hexagon",181,"Y",2,"","",NA,NA,"",NA,0.436924153007567,"k",NA,26,"inlab","MacIntel",NA,NA,NA
"264",42648,1,0,0,988,"switch","number","numSwt","low","noRew","star",174,"U",2,"","",NA,NA,"",NA,0.566577032004716,"f",NA,27,"inlab","MacIntel",NA,NA,NA
"265",42648,1,0,0,988,"switch","letter","lettSwt","low","noRew","star",132,"F",2,"","",NA,NA,"",NA,0.653362917000777,"j",NA,28,"inlab","MacIntel",NA,NA,NA
"266",42648,1,0,1,989,"switch","number","numSwt","low","noRew","hexagon",167,"W",2,"","",NA,NA,"",NA,0.479953350994037,"f",NA,29,"inlab","MacIntel",NA,NA,NA
"267",42648,1,0,0,989,"switch","letter","lettSwt","low","noRew","star",139,"B",2,"","",NA,NA,"",NA,0.543694281994249,"j",NA,30,"inlab","MacIntel",NA,NA,NA
"268",42648,1,0,1,990,"repeat","letter","lettRpt","low","noRew","hexagon",146,"S",2,"","",NA,NA,"",NA,0.519204141994123,"k",NA,31,"inlab","MacIntel",NA,NA,NA
"269",42648,1,0,0,990,"switch","number","numSwt","high","noRew","triangle",160,"D",3,"","",NA,NA,"",NA,0.560890193009982,"f",NA,0,"inlab","MacIntel",NA,NA,NA
"270",42648,1,0,1,991,"repeat","number","numRpt","high","noRew","circle",125,"U",3,"","",NA,NA,"",NA,0.559703819002607,"d",NA,1,"inlab","MacIntel",NA,NA,NA
"271",42648,1,0,1,992,"repeat","number","numRpt","high","noRew","circle",139,"F",3,"","",NA,NA,"",NA,0.637191094996524,"d",NA,2,"inlab","MacIntel",NA,NA,NA
"272",42648,1,0,10,1002,"repeat","number","numRpt","high","noRew","triangle",181,"Y",3,"","",NA,NA,"",NA,0.503915064997273,"f",NA,3,"inlab","MacIntel",NA,NA,NA
"273",42648,1,0,10,1012,"repeat","number","numRpt","high","noRew","triangle",167,"S",3,"","",NA,NA,"",NA,0.487604629000998,"f",NA,4,"inlab","MacIntel",NA,NA,NA
"274",42648,1,0,1,1013,"repeat","number","numRpt","high","noRew","circle",146,"B",3,"","",NA,NA,"",NA,0.567224850005005,"d",NA,5,"inlab","MacIntel",NA,NA,NA
"275",42648,1,0,1,1014,"switch","letter","lettSwt","high","noRew","circle",132,"H",3,"","",NA,NA,"",NA,0.540112000002409,"j",NA,6,"inlab","MacIntel",NA,NA,NA
"276",42648,1,0,10,1024,"switch","number","numSwt","high","noRew","triangle",174,"W",3,"","",NA,NA,"",NA,0.451202540003578,"f",NA,7,"inlab","MacIntel",NA,NA,NA
"277",42648,1,0,0,1024,"repeat","number","numRpt","high","noRew","triangle",160,"D",3,"","",NA,NA,"",NA,0.595216091998736,"f",NA,8,"inlab","MacIntel",NA,NA,NA
"278",42648,1,0,1,1025,"repeat","number","numRpt","high","noRew","circle",125,"U",3,"","",NA,NA,"",NA,0.890083270001924,"d",NA,9,"inlab","MacIntel",NA,NA,NA
"279",42648,1,0,0,1025,"repeat","number","numRpt","high","noRew","triangle",139,"F",3,"","",NA,NA,"",NA,0.722150112997042,"d",NA,10,"inlab","MacIntel",NA,NA,NA
"280",42648,0,0,0,1025,"repeat","number",NA,"high","noRew","circle",181,"Y",3,"","",NA,NA,"",NA,0.466053764990647,"d",NA,11,"inlab","MacIntel",NA,NA,NA
"281",42648,1,1,1,1026,"repeat","number","numRpt","high","noRew","circle",167,"S",3,"","",NA,NA,"",NA,0.459983572000056,"f",NA,12,"inlab","MacIntel",NA,NA,NA
"282",42648,1,0,0,1026,"repeat","number","numRpt","high","noRew","triangle",146,"B",3,"","",NA,NA,"",NA,0.574589631010895,"d",NA,13,"inlab","MacIntel",NA,NA,NA
"283",42648,1,0,0,1026,"repeat","number","numRpt","high","noRew","triangle",132,"H",3,"","",NA,NA,"",NA,0.570247704003123,"d",NA,14,"inlab","MacIntel",NA,NA,NA
"284",42648,1,0,1,1027,"repeat","number","numRpt","high","noRew","circle",174,"W",3,"","",NA,NA,"",NA,0.632219898994663,"f",NA,15,"inlab","MacIntel",NA,NA,NA
"285",42648,1,0,10,1037,"repeat","number","numRpt","high","noRew","circle",132,"D",3,"","",NA,NA,"",NA,0.514856424997561,"d",NA,16,"inlab","MacIntel",NA,NA,NA
"286",42648,1,0,0,1037,"repeat","number","numRpt","high","noRew","triangle",160,"Y",3,"","",NA,NA,"",NA,0.674276202989859,"f",NA,17,"inlab","MacIntel",NA,NA,NA
"287",42648,1,0,1,1038,"switch","letter","lettSwt","high","noRew","circle",181,"B",3,"","",NA,NA,"",NA,0.436774481000612,"j",NA,18,"inlab","MacIntel",NA,NA,NA
"288",42648,1,0,10,1048,"switch","number","numSwt","high","noRew","triangle",125,"S",3,"","",NA,NA,"",NA,0.494856448989594,"d",NA,19,"inlab","MacIntel",NA,NA,NA
"289",42648,1,0,0,1048,"switch","letter","lettSwt","high","noRew","triangle",167,"H",3,"","",NA,NA,"",NA,0.591343585008872,"j",NA,20,"inlab","MacIntel",NA,NA,NA
"290",42648,1,0,1,1049,"switch","number","numSwt","high","noRew","circle",139,"F",3,"","",NA,NA,"",NA,0.731942858998082,"d",NA,21,"inlab","MacIntel",NA,NA,NA
"291",42648,1,0,1,1050,"repeat","number","numRpt","high","noRew","circle",146,"U",3,"","",NA,NA,"",NA,0.77005631600332,"d",NA,22,"inlab","MacIntel",NA,NA,NA
"292",42648,1,0,0,1050,"repeat","number","numRpt","high","noRew","triangle",174,"W",3,"","",NA,NA,"",NA,0.54524596700503,"f",NA,23,"inlab","MacIntel",NA,NA,NA
"293",42648,1,0,0,1050,"repeat","number","numRpt","high","noRew","triangle",132,"B",3,"","",NA,NA,"",NA,0.519935290998546,"d",NA,24,"inlab","MacIntel",NA,NA,NA
"294",42648,1,0,10,1060,"repeat","number","numRpt","high","noRew","circle",167,"D",3,"","",NA,NA,"",NA,0.544449530993006,"f",NA,25,"inlab","MacIntel",NA,NA,NA
"295",42648,1,0,0,1060,"repeat","number","numRpt","high","noRew","triangle",181,"Y",3,"","",NA,NA,"",NA,0.565622859008727,"f",NA,26,"inlab","MacIntel",NA,NA,NA
"296",42648,1,0,1,1061,"switch","letter","lettSwt","high","noRew","circle",146,"S",3,"","",NA,NA,"",NA,0.644093790004263,"k",NA,27,"inlab","MacIntel",NA,NA,NA
"297",42648,1,0,10,1071,"switch","number","numSwt","high","noRew","triangle",174,"H",3,"","",NA,NA,"",NA,0.350818143997458,"f",NA,28,"inlab","MacIntel",NA,NA,NA
"298",42648,1,0,1,1072,"repeat","number","numRpt","high","noRew","circle",139,"F",3,"","",NA,NA,"",NA,0.653473030004534,"d",NA,29,"inlab","MacIntel",NA,NA,NA
"299",42648,1,0,10,1082,"repeat","number","numRpt","high","noRew","triangle",125,"U",3,"","",NA,NA,"",NA,0.48660965700401,"d",NA,30,"inlab","MacIntel",NA,NA,NA
"300",42648,1,0,1,1083,"repeat","number","numRpt","high","noRew","circle",160,"W",3,"","",NA,NA,"",NA,0.622398223000346,"f",NA,31,"inlab","MacIntel",NA,NA,NA
"301",42648,1,0,1,1084,"repeat","number","numRpt","low","noRew","hexagon",181,"D",4,"","",NA,NA,"",NA,0.514472823007964,"f",NA,0,"inlab","MacIntel",NA,NA,NA
"302",42648,1,0,1,1085,"switch","letter","lettSwt","low","noRew","star",174,"Y",4,"","",NA,NA,"",NA,0.498620012003812,"k",NA,1,"inlab","MacIntel",NA,NA,NA
"303",42648,1,0,1,1086,"repeat","letter","lettRpt","low","noRew","star",146,"H",4,"","",NA,NA,"",NA,0.523271124009625,"j",NA,2,"inlab","MacIntel",NA,NA,NA
"304",42648,1,0,1,1087,"repeat","letter","lettRpt","low","noRew","hexagon",160,"F",4,"","",NA,NA,"",NA,0.601595096988603,"j",NA,3,"inlab","MacIntel",NA,NA,NA
"305",42648,1,0,1,1088,"repeat","letter","lettRpt","low","noRew","star",125,"W",4,"","",NA,NA,"",NA,0.685780125000747,"k",NA,4,"inlab","MacIntel",NA,NA,NA
"306",42648,1,0,1,1089,"repeat","letter","lettRpt","low","noRew","hexagon",132,"B",4,"","",NA,NA,"",NA,0.421477019990562,"j",NA,5,"inlab","MacIntel",NA,NA,NA
"307",42648,1,0,1,1090,"repeat","letter","lettRpt","low","noRew","hexagon",139,"S",4,"","",NA,NA,"",NA,0.505271596004604,"k",NA,6,"inlab","MacIntel",NA,NA,NA
"308",42648,1,0,10,1100,"repeat","letter","lettRpt","low","noRew","star",167,"U",4,"","",NA,NA,"",NA,0.497311044004164,"k",NA,7,"inlab","MacIntel",NA,NA,NA
"309",42648,1,0,1,1101,"repeat","letter","lettRpt","low","noRew","hexagon",181,"D",4,"","",NA,NA,"",NA,0.474334835002082,"j",NA,8,"inlab","MacIntel",NA,NA,NA
"310",42648,1,0,10,1111,"repeat","letter","lettRpt","low","noRew","star",174,"Y",4,"","",NA,NA,"",NA,0.55528670399508,"k",NA,9,"inlab","MacIntel",NA,NA,NA
"311",42648,1,0,1,1112,"repeat","letter","lettRpt","low","noRew","hexagon",146,"H",4,"","",NA,NA,"",NA,0.529427506000502,"j",NA,10,"inlab","MacIntel",NA,NA,NA
"312",42648,1,0,1,1113,"repeat","letter","lettRpt","low","noRew","star",160,"F",4,"","",NA,NA,"",NA,0.569555697991745,"j",NA,11,"inlab","MacIntel",NA,NA,NA
"313",42648,1,0,10,1123,"switch","number","numSwt","low","noRew","hexagon",125,"W",4,"","",NA,NA,"",NA,0.734825934006949,"d",NA,12,"inlab","MacIntel",NA,NA,NA
"314",42648,1,0,10,1133,"repeat","number","numRpt","low","noRew","star",132,"B",4,"","",NA,NA,"",NA,0.532787274991279,"d",NA,13,"inlab","MacIntel",NA,NA,NA
"315",42648,1,0,1,1134,"repeat","number","numRpt","low","noRew","star",139,"S",4,"","",NA,NA,"",NA,0.532753958992544,"d",NA,14,"inlab","MacIntel",NA,NA,NA
"316",42648,1,0,1,1135,"repeat","number","numRpt","low","noRew","hexagon",167,"U",4,"","",NA,NA,"",NA,0.867461932997685,"f",NA,15,"inlab","MacIntel",NA,NA,NA
"317",42648,1,0,1,1136,"repeat","number","numRpt","low","noRew","hexagon",181,"B",4,"","",NA,NA,"",NA,0.572590109004523,"f",NA,16,"inlab","MacIntel",NA,NA,NA
"318",42648,1,0,10,1146,"switch","letter","lettSwt","low","noRew","star",132,"W",4,"","",NA,NA,"",NA,0.408938035005121,"k",NA,17,"inlab","MacIntel",NA,NA,NA
"319",42648,1,0,0,1146,"switch","number","numSwt","low","noRew","star",146,"F",4,"","",NA,NA,"",NA,1.14822371098853,"d",NA,18,"inlab","MacIntel",NA,NA,NA
"320",42648,1,0,1,1147,"repeat","number","numRpt","low","noRew","hexagon",167,"D",4,"","",NA,NA,"",NA,0.595700437988853,"f",NA,19,"inlab","MacIntel",NA,NA,NA
"321",42648,1,0,10,1157,"repeat","number","numRpt","low","noRew","star",160,"H",4,"","",NA,NA,"",NA,0.50437173100363,"f",NA,20,"inlab","MacIntel",NA,NA,NA
"322",42648,1,0,1,1158,"repeat","number","numRpt","low","noRew","hexagon",174,"S",4,"","",NA,NA,"",NA,0.632355570007348,"f",NA,21,"inlab","MacIntel",NA,NA,NA
"323",42648,1,0,1,1159,"switch","letter","lettSwt","low","noRew","hexagon",125,"Y",4,"","",NA,NA,"",NA,0.51508261699928,"k",NA,22,"inlab","MacIntel",NA,NA,NA
"324",42648,1,0,0,1159,"switch","number","numSwt","low","noRew","star",139,"U",4,"","",NA,NA,"",NA,0.779944405003334,"d",NA,23,"inlab","MacIntel",NA,NA,NA
"325",42648,1,0,10,1169,"switch","letter","lettSwt","low","noRew","star",132,"B",4,"","",NA,NA,"",NA,0.464626658998895,"j",NA,24,"inlab","MacIntel",NA,NA,NA
"326",42648,1,0,1,1170,"repeat","letter","lettRpt","low","noRew","hexagon",167,"F",4,"","",NA,NA,"",NA,0.74785409400647,"j",NA,25,"inlab","MacIntel",NA,NA,NA
"327",42648,1,0,1,1171,"repeat","letter","lettRpt","low","noRew","star",160,"D",4,"","",NA,NA,"",NA,0.938394294003956,"j",NA,26,"inlab","MacIntel",NA,NA,NA
"328",42648,1,0,10,1181,"repeat","letter","lettRpt","low","noRew","hexagon",174,"W",4,"","",NA,NA,"",NA,0.529751345005934,"k",NA,27,"inlab","MacIntel",NA,NA,NA
"329",42648,1,0,10,1191,"repeat","letter","lettRpt","low","noRew","hexagon",139,"S",4,"","",NA,NA,"",NA,0.511462689988548,"k",NA,28,"inlab","MacIntel",NA,NA,NA
"330",42648,1,0,10,1201,"repeat","letter","lettRpt","low","noRew","star",181,"H",4,"","",NA,NA,"",NA,0.559759864991065,"j",NA,29,"inlab","MacIntel",NA,NA,NA
"331",42648,1,0,10,1211,"repeat","letter","lettRpt","low","noRew","star",125,"Y",4,"","",NA,NA,"",NA,0.44586738300859,"k",NA,30,"inlab","MacIntel",NA,NA,NA
"332",42648,1,0,1,1212,"repeat","letter","lettRpt","low","noRew","hexagon",146,"U",4,"","",NA,NA,"",NA,0.449573604011675,"k",NA,31,"inlab","MacIntel",NA,NA,NA
"333",42648,1,0,0,1212,"repeat","letter","lettRpt","low","noRew","star",146,"D",5,"","",NA,NA,"",NA,0.528980217000935,"j",NA,0,"inlab","MacIntel",NA,NA,NA
"334",42648,1,0,1,1213,"repeat","letter","lettRpt","low","noRew","hexagon",167,"F",5,"","",NA,NA,"",NA,0.512898371991469,"j",NA,1,"inlab","MacIntel",NA,NA,NA
"335",42648,1,0,1,1214,"repeat","letter","lettRpt","low","noRew","hexagon",181,"U",5,"","",NA,NA,"",NA,0.391547968989471,"k",NA,2,"inlab","MacIntel",NA,NA,NA
"336",42648,1,0,0,1214,"repeat","letter","lettRpt","low","noRew","star",160,"H",5,"","",NA,NA,"",NA,0.607303010008764,"j",NA,3,"inlab","MacIntel",NA,NA,NA
"337",42648,1,0,1,1215,"repeat","letter","lettRpt","low","noRew","hexagon",125,"W",5,"","",NA,NA,"",NA,0.441425386990886,"k",NA,4,"inlab","MacIntel",NA,NA,NA
"338",42648,1,0,10,1225,"repeat","letter","lettRpt","low","noRew","star",132,"Y",5,"","",NA,NA,"",NA,0.452450812997995,"k",NA,5,"inlab","MacIntel",NA,NA,NA
"339",42648,1,0,10,1235,"repeat","letter","lettRpt","low","noRew","star",174,"B",5,"","",NA,NA,"",NA,0.494226644004812,"j",NA,6,"inlab","MacIntel",NA,NA,NA
"340",42648,1,0,1,1236,"repeat","letter","lettRpt","low","noRew","hexagon",139,"S",5,"","",NA,NA,"",NA,0.470581898000091,"k",NA,7,"inlab","MacIntel",NA,NA,NA
"341",42648,1,0,10,1246,"repeat","letter","lettRpt","low","noRew","hexagon",146,"D",5,"","",NA,NA,"",NA,0.639557685994077,"j",NA,8,"inlab","MacIntel",NA,NA,NA
"342",42648,1,0,0,1246,"repeat","letter","lettRpt","low","noRew","star",167,"F",5,"","",NA,NA,"",NA,0.587868254006025,"j",NA,9,"inlab","MacIntel",NA,NA,NA
"343",42648,1,0,1,1247,"repeat","letter","lettRpt","low","noRew","star",181,"U",5,"","",NA,NA,"",NA,0.456728071003454,"k",NA,10,"inlab","MacIntel",NA,NA,NA
"344",42648,1,0,1,1248,"repeat","letter","lettRpt","low","noRew","hexagon",160,"H",5,"","",NA,NA,"",NA,0.474622790992726,"j",NA,11,"inlab","MacIntel",NA,NA,NA
"345",42648,1,0,0,1248,"repeat","letter","lettRpt","low","noRew","star",125,"W",5,"","",NA,NA,"",NA,0.555337887999485,"k",NA,12,"inlab","MacIntel",NA,NA,NA
"346",42648,1,0,1,1249,"repeat","letter","lettRpt","low","noRew","hexagon",132,"Y",5,"","",NA,NA,"",NA,0.570083188009448,"k",NA,13,"inlab","MacIntel",NA,NA,NA
"347",42648,1,0,1,1250,"repeat","letter","lettRpt","low","noRew","hexagon",174,"B",5,"","",NA,NA,"",NA,0.480208688997664,"j",NA,14,"inlab","MacIntel",NA,NA,NA
"348",42648,1,0,10,1260,"repeat","letter","lettRpt","low","noRew","star",139,"S",5,"","",NA,NA,"",NA,0.488128151002456,"k",NA,15,"inlab","MacIntel",NA,NA,NA
"349",42648,1,0,0,1260,"repeat","letter","lettRpt","low","noRew","star",167,"Y",5,"","",NA,NA,"",NA,0.520583331002854,"k",NA,16,"inlab","MacIntel",NA,NA,NA
"350",42648,1,0,10,1270,"repeat","letter","lettRpt","low","noRew","hexagon",125,"U",5,"","",NA,NA,"",NA,0.551644834995386,"k",NA,17,"inlab","MacIntel",NA,NA,NA
"351",42648,1,0,10,1280,"repeat","letter","lettRpt","low","noRew","star",181,"W",5,"","",NA,NA,"",NA,0.398456605995307,"k",NA,18,"inlab","MacIntel",NA,NA,NA
"352",42648,1,0,1,1281,"repeat","letter","lettRpt","low","noRew","hexagon",139,"H",5,"","",NA,NA,"",NA,0.562888571002986,"j",NA,19,"inlab","MacIntel",NA,NA,NA
"353",42648,1,0,0,1281,"repeat","letter","lettRpt","low","noRew","star",160,"B",5,"","",NA,NA,"",NA,0.520368209996377,"j",NA,20,"inlab","MacIntel",NA,NA,NA
"354",42648,1,0,10,1291,"repeat","letter","lettRpt","low","noRew","hexagon",174,"D",5,"","",NA,NA,"",NA,0.591579264000757,"j",NA,21,"inlab","MacIntel",NA,NA,NA
"355",42648,1,0,0,1291,"repeat","letter","lettRpt","low","noRew","star",146,"S",5,"","",NA,NA,"",NA,0.53233063800144,"k",NA,22,"inlab","MacIntel",NA,NA,NA
"356",42648,1,0,10,1301,"repeat","letter","lettRpt","low","noRew","hexagon",132,"F",5,"","",NA,NA,"",NA,0.603091997996671,"j",NA,23,"inlab","MacIntel",NA,NA,NA
"357",42648,1,0,0,1301,"repeat","letter","lettRpt","low","noRew","star",125,"D",5,"","",NA,NA,"",NA,0.64029125199886,"j",NA,24,"inlab","MacIntel",NA,NA,NA
"358",42648,1,0,1,1302,"repeat","letter","lettRpt","low","noRew","hexagon",132,"U",5,"","",NA,NA,"",NA,0.482356571999844,"k",NA,25,"inlab","MacIntel",NA,NA,NA
"359",42648,1,0,1,1303,"repeat","letter","lettRpt","low","noRew","hexagon",167,"B",5,"","",NA,NA,"",NA,0.757012595990091,"j",NA,26,"inlab","MacIntel",NA,NA,NA
"360",42648,1,0,10,1313,"repeat","letter","lettRpt","low","noRew","star",146,"W",5,"","",NA,NA,"",NA,0.417537899003946,"k",NA,27,"inlab","MacIntel",NA,NA,NA
"361",42648,1,0,10,1323,"repeat","letter","lettRpt","low","noRew","hexagon",139,"F",5,"","",NA,NA,"",NA,0.533214060007595,"j",NA,28,"inlab","MacIntel",NA,NA,NA
"362",42648,1,0,0,1323,"repeat","letter","lettRpt","low","noRew","star",174,"S",5,"","",NA,NA,"",NA,0.588330735990894,"k",NA,29,"inlab","MacIntel",NA,NA,NA
"363",42648,1,0,1,1324,"repeat","letter","lettRpt","low","noRew","hexagon",160,"Y",5,"","",NA,NA,"",NA,0.5364454859955,"k",NA,30,"inlab","MacIntel",NA,NA,NA
"364",42648,0,0,0,1324,"repeat","letter",NA,"low","noRew","star",181,"H",5,"","",NA,NA,"",NA,0.55912321699725,"k",NA,31,"inlab","MacIntel",NA,NA,NA
