"","participant","acc","E1","points_trial","points_cumul","alt","task","condition","rewCond","curr_shape","curr_topStim","curr_bottStim","blockNum","LShape_ID","RShape_ID","trainBlock","training.thisN","training_resp.keys","training_resp.rt","target_resp.rt","target_resp.keys","trials_norew.thisRepN","trials_rew.thisRepN","platform","OS","browser","xResolution","yResolution","rewExpect"
"1",47150,NA,NA,1,1,"","","training","","",NA,"",NA,"circle","triangle",0,0,"a",3.00131856500229,NA,"",NA,NA,"inlab","MacIntel",NA,NA,NA,NA
"2",47150,NA,NA,1,2,"","","training","","",NA,"",NA,"star","triangle",0,1,"l",3.33043939399795,NA,"",NA,NA,"inlab","MacIntel",NA,NA,NA,NA
"3",47150,NA,NA,10,12,"","","training","","",NA,"",NA,"circle","star",0,2,"l",1.14227597099671,NA,"",NA,NA,"inlab","MacIntel",NA,NA,NA,NA
"4",47150,NA,NA,10,22,"","","training","","",NA,"",NA,"triangle","hexagon",0,3,"l",0.460292818999733,NA,"",NA,NA,"inlab","MacIntel",NA,NA,NA,NA
"5",47150,NA,NA,1,23,"","","training","","",NA,"",NA,"circle","hexagon",0,4,"l",3.56540192099783,NA,"",NA,NA,"inlab","MacIntel",NA,NA,NA,NA
"6",47150,NA,NA,1,24,"","","training","","",NA,"",NA,"star","circle",0,5,"a",2.86422108199622,NA,"",NA,NA,"inlab","MacIntel",NA,NA,NA,NA
"7",47150,NA,NA,10,34,"","","training","","",NA,"",NA,"hexagon","triangle",0,6,"a",3.23206210900389,NA,"",NA,NA,"inlab","MacIntel",NA,NA,NA,NA
"8",47150,NA,NA,1,35,"","","training","","",NA,"",NA,"star","hexagon",0,7,"a",1.94341124500352,NA,"",NA,NA,"inlab","MacIntel",NA,NA,NA,NA
"9",47150,NA,NA,1,36,"","","training","","",NA,"",NA,"triangle","star",0,8,"l",4.47743237699615,NA,"",NA,NA,"inlab","MacIntel",NA,NA,NA,NA
"10",47150,NA,NA,1,37,"","","training","","",NA,"",NA,"hexagon","star",0,9,"l",4.80235282699869,NA,"",NA,NA,"inlab","MacIntel",NA,NA,NA,NA
"11",47150,NA,NA,10,47,"","","training","","",NA,"",NA,"triangle","circle",0,10,"l",2.17022148999968,NA,"",NA,NA,"inlab","MacIntel",NA,NA,NA,NA
"12",47150,NA,NA,10,57,"","","training","","",NA,"",NA,"hexagon","circle",0,11,"l",0.76559544599877,NA,"",NA,NA,"inlab","MacIntel",NA,NA,NA,NA
"13",47150,NA,NA,1,58,"","","training","","",NA,"",NA,"triangle","star",0,12,"l",1.64281722199667,NA,"",NA,NA,"inlab","MacIntel",NA,NA,NA,NA
"14",47150,NA,NA,1,59,"","","training","","",NA,"",NA,"circle","hexagon",0,13,"a",4.52315067699965,NA,"",NA,NA,"inlab","MacIntel",NA,NA,NA,NA
"15",47150,NA,NA,1,60,"","","training","","",NA,"",NA,"circle","star",0,14,"a",3.60640258200146,NA,"",NA,NA,"inlab","MacIntel",NA,NA,NA,NA
"16",47150,NA,NA,10,70,"","","training","","",NA,"",NA,"hexagon","circle",0,15,"l",4.03897796600359,NA,"",NA,NA,"inlab","MacIntel",NA,NA,NA,NA
"17",47150,NA,NA,1,71,"","","training","","",NA,"",NA,"circle","triangle",0,16,"a",2.9350647579995,NA,"",NA,NA,"inlab","MacIntel",NA,NA,NA,NA
"18",47150,NA,NA,1,72,"","","training","","",NA,"",NA,"star","circle",0,17,"a",2.05911640900013,NA,"",NA,NA,"inlab","MacIntel",NA,NA,NA,NA
"19",47150,NA,NA,10,82,"","","training","","",NA,"",NA,"star","hexagon",0,18,"l",29.6586380970039,NA,"",NA,NA,"inlab","MacIntel",NA,NA,NA,NA
"20",47150,NA,NA,1,83,"","","training","","",NA,"",NA,"triangle","hexagon",0,19,"a",2.34951089999959,NA,"",NA,NA,"inlab","MacIntel",NA,NA,NA,NA
"21",47150,NA,NA,1,84,"","","training","","",NA,"",NA,"hexagon","triangle",0,20,"a",2.6349969369985,NA,"",NA,NA,"inlab","MacIntel",NA,NA,NA,NA
"22",47150,NA,NA,10,94,"","","training","","",NA,"",NA,"triangle","circle",0,21,"l",1.56209971999488,NA,"",NA,NA,"inlab","MacIntel",NA,NA,NA,NA
"23",47150,NA,NA,1,95,"","","training","","",NA,"",NA,"star","triangle",0,22,"a",2.29494660400087,NA,"",NA,NA,"inlab","MacIntel",NA,NA,NA,NA
"24",47150,NA,NA,1,96,"","","training","","",NA,"",NA,"hexagon","star",0,23,"l",5.71836010900006,NA,"",NA,NA,"inlab","MacIntel",NA,NA,NA,NA
"25",47150,NA,NA,10,106,"","","training","","",NA,"",NA,"star","hexagon",0,24,"l",1.32017959199584,NA,"",NA,NA,"inlab","MacIntel",NA,NA,NA,NA
"26",47150,NA,NA,1,107,"","","training","","",NA,"",NA,"hexagon","star",0,25,"l",3.57376624500466,NA,"",NA,NA,"inlab","MacIntel",NA,NA,NA,NA
"27",47150,NA,NA,1,108,"","","training","","",NA,"",NA,"star","triangle",0,26,"l",1.17551785199612,NA,"",NA,NA,"inlab","MacIntel",NA,NA,NA,NA
"28",47150,NA,NA,1,109,"","","training","","",NA,"",NA,"triangle","circle",0,27,"a",1.05234137100342,NA,"",NA,NA,"inlab","MacIntel",NA,NA,NA,NA
"29",47150,NA,NA,1,110,"","","training","","",NA,"",NA,"hexagon","triangle",0,28,"l",4.91774042299949,NA,"",NA,NA,"inlab","MacIntel",NA,NA,NA,NA
"30",47150,NA,NA,1,111,"","","training","","",NA,"",NA,"circle","triangle",0,29,"a",1.1689401390031,NA,"",NA,NA,"inlab","MacIntel",NA,NA,NA,NA
"31",47150,NA,NA,10,121,"","","training","","",NA,"",NA,"hexagon","circle",0,30,"a",1.41355647899763,NA,"",NA,NA,"inlab","MacIntel",NA,NA,NA,NA
"32",47150,NA,NA,1,122,"","","training","","",NA,"",NA,"triangle","hexagon",0,31,"a",4.85616953299905,NA,"",NA,NA,"inlab","MacIntel",NA,NA,NA,NA
"33",47150,NA,NA,10,132,"","","training","","",NA,"",NA,"circle","hexagon",0,32,"l",1.66945254199527,NA,"",NA,NA,"inlab","MacIntel",NA,NA,NA,NA
"34",47150,NA,NA,10,142,"","","training","","",NA,"",NA,"star","circle",0,33,"l",2.84471016699536,NA,"",NA,NA,"inlab","MacIntel",NA,NA,NA,NA
"35",47150,NA,NA,1,143,"","","training","","",NA,"",NA,"circle","star",0,34,"a",2.88656398399326,NA,"",NA,NA,"inlab","MacIntel",NA,NA,NA,NA
"36",47150,NA,NA,10,153,"","","training","","",NA,"",NA,"triangle","star",0,35,"l",4.12324653199903,NA,"",NA,NA,"inlab","MacIntel",NA,NA,NA,NA
"37",47150,NA,NA,10,163,"","","training","","",NA,"",NA,"star","hexagon",1,0,"a",2.1526519790059,NA,"",NA,NA,"inlab","MacIntel",NA,NA,NA,NA
"38",47150,NA,NA,1,164,"","","training","","",NA,"",NA,"triangle","star",1,1,"l",1.56414242299797,NA,"",NA,NA,"inlab","MacIntel",NA,NA,NA,NA
"39",47150,NA,NA,10,174,"","","training","","",NA,"",NA,"circle","star",1,2,"l",2.95404760000383,NA,"",NA,NA,"inlab","MacIntel",NA,NA,NA,NA
"40",47150,NA,NA,10,184,"","","training","","",NA,"",NA,"triangle","circle",1,3,"l",3.83856929199828,NA,"",NA,NA,"inlab","MacIntel",NA,NA,NA,NA
"41",47150,NA,NA,10,194,"","","training","","",NA,"",NA,"star","triangle",1,4,"a",4.54646632300137,NA,"",NA,NA,"inlab","MacIntel",NA,NA,NA,NA
"42",47150,NA,NA,10,204,"","","training","","",NA,"",NA,"circle","triangle",1,5,"a",4.53306658999645,NA,"",NA,NA,"inlab","MacIntel",NA,NA,NA,NA
"43",47150,NA,NA,1,205,"","","training","","",NA,"",NA,"triangle","hexagon",1,6,"l",17.5534132370012,NA,"",NA,NA,"inlab","MacIntel",NA,NA,NA,NA
"44",47150,NA,NA,10,215,"","","training","","",NA,"",NA,"hexagon","star",1,7,"a",9.74770944500051,NA,"",NA,NA,"inlab","MacIntel",NA,NA,NA,NA
"45",47150,NA,NA,10,225,"","","training","","",NA,"",NA,"star","circle",1,8,"a",4.17627187100152,NA,"",NA,NA,"inlab","MacIntel",NA,NA,NA,NA
"46",47150,NA,NA,1,226,"","","training","","",NA,"",NA,"hexagon","circle",1,9,"l",2.53689764999581,NA,"",NA,NA,"inlab","MacIntel",NA,NA,NA,NA
"47",47150,NA,NA,10,236,"","","training","","",NA,"",NA,"hexagon","triangle",1,10,"a",4.77320822699403,NA,"",NA,NA,"inlab","MacIntel",NA,NA,NA,NA
"48",47150,NA,NA,10,246,"","","training","","",NA,"",NA,"circle","hexagon",1,11,"a",1.63033446200279,NA,"",NA,NA,"inlab","MacIntel",NA,NA,NA,NA
"49",47150,NA,NA,1,247,"","","training","","",NA,"",NA,"hexagon","star",1,12,"l",3.0006155029987,NA,"",NA,NA,"inlab","MacIntel",NA,NA,NA,NA
"50",47150,NA,NA,10,257,"","","training","","",NA,"",NA,"circle","triangle",1,13,"a",1.85881473700283,NA,"",NA,NA,"inlab","MacIntel",NA,NA,NA,NA
"51",47150,NA,NA,10,267,"","","training","","",NA,"",NA,"triangle","star",1,14,"l",2.01934316300321,NA,"",NA,NA,"inlab","MacIntel",NA,NA,NA,NA
"52",47150,NA,NA,1,268,"","","training","","",NA,"",NA,"star","circle",1,15,"l",2.37966850399971,NA,"",NA,NA,"inlab","MacIntel",NA,NA,NA,NA
"53",47150,NA,NA,1,269,"","","training","","",NA,"",NA,"circle","hexagon",1,16,"l",5.68800322600146,NA,"",NA,NA,"inlab","MacIntel",NA,NA,NA,NA
"54",47150,NA,NA,10,279,"","","training","","",NA,"",NA,"hexagon","triangle",1,17,"a",1.21883075599908,NA,"",NA,NA,"inlab","MacIntel",NA,NA,NA,NA
"55",47150,NA,NA,10,289,"","","training","","",NA,"",NA,"hexagon","circle",1,18,"a",0.651984395997715,NA,"",NA,NA,"inlab","MacIntel",NA,NA,NA,NA
"56",47150,NA,NA,1,290,"","","training","","",NA,"",NA,"triangle","circle",1,19,"l",0.310384502001398,NA,"",NA,NA,"inlab","MacIntel",NA,NA,NA,NA
"57",47150,NA,NA,10,300,"","","training","","",NA,"",NA,"star","hexagon",1,20,"a",1.02267844400194,NA,"",NA,NA,"inlab","MacIntel",NA,NA,NA,NA
"58",47150,NA,NA,10,310,"","","training","","",NA,"",NA,"circle","star",1,21,"l",2.20976237899595,NA,"",NA,NA,"inlab","MacIntel",NA,NA,NA,NA
"59",47150,NA,NA,1,311,"","","training","","",NA,"",NA,"star","triangle",1,22,"l",2.21056356900226,NA,"",NA,NA,"inlab","MacIntel",NA,NA,NA,NA
"60",47150,NA,NA,10,321,"","","training","","",NA,"",NA,"triangle","hexagon",1,23,"a",1.35840477199963,NA,"",NA,NA,"inlab","MacIntel",NA,NA,NA,NA
"61",47150,NA,NA,10,331,"","","training","","",NA,"",NA,"hexagon","circle",1,24,"a",1.91328537299705,NA,"",NA,NA,"inlab","MacIntel",NA,NA,NA,NA
"62",47150,NA,NA,1,332,"","","training","","",NA,"",NA,"circle","triangle",1,25,"a",1.7124123570029,NA,"",NA,NA,"inlab","MacIntel",NA,NA,NA,NA
"63",47150,NA,NA,1,333,"","","training","","",NA,"",NA,"hexagon","star",1,26,"l",4.65536591199634,NA,"",NA,NA,"inlab","MacIntel",NA,NA,NA,NA
"64",47150,NA,NA,1,334,"","","training","","",NA,"",NA,"star","triangle",1,27,"a",1.53372775000025,NA,"",NA,NA,"inlab","MacIntel",NA,NA,NA,NA
"65",47150,NA,NA,1,335,"","","training","","",NA,"",NA,"circle","star",1,28,"a",2.55427216200042,NA,"",NA,NA,"inlab","MacIntel",NA,NA,NA,NA
"66",47150,NA,NA,10,345,"","","training","","",NA,"",NA,"star","hexagon",1,29,"l",0.902085735004221,NA,"",NA,NA,"inlab","MacIntel",NA,NA,NA,NA
"67",47150,NA,NA,10,355,"","","training","","",NA,"",NA,"star","circle",1,30,"a",7.97546973599674,NA,"",NA,NA,"inlab","MacIntel",NA,NA,NA,NA
"68",47150,NA,NA,10,365,"","","training","","",NA,"",NA,"triangle","star",1,31,"l",5.33176362199447,NA,"",NA,NA,"inlab","MacIntel",NA,NA,NA,NA
"69",47150,NA,NA,10,375,"","","training","","",NA,"",NA,"triangle","circle",1,32,"a",5.68499058299494,NA,"",NA,NA,"inlab","MacIntel",NA,NA,NA,NA
"70",47150,NA,NA,10,385,"","","training","","",NA,"",NA,"hexagon","triangle",1,33,"a",4.06490832199779,NA,"",NA,NA,"inlab","MacIntel",NA,NA,NA,NA
"71",47150,NA,NA,10,395,"","","training","","",NA,"",NA,"triangle","hexagon",1,34,"l",1.7108554860024,NA,"",NA,NA,"inlab","MacIntel",NA,NA,NA,NA
"72",47150,NA,NA,1,396,"","","training","","",NA,"",NA,"circle","hexagon",1,35,"a",4.18914493599732,NA,"",NA,NA,"inlab","MacIntel",NA,NA,NA,NA
"73",47150,NA,NA,1,397,"","","training","","",NA,"",NA,"triangle","circle",2,0,"l",1.8279365740018,NA,"",NA,NA,"inlab","MacIntel",NA,NA,NA,NA
"74",47150,NA,NA,1,398,"","","training","","",NA,"",NA,"star","circle",2,1,"a",0.670518065999204,NA,"",NA,NA,"inlab","MacIntel",NA,NA,NA,NA
"75",47150,NA,NA,1,399,"","","training","","",NA,"",NA,"triangle","star",2,2,"l",1.38530732200161,NA,"",NA,NA,"inlab","MacIntel",NA,NA,NA,NA
"76",47150,NA,NA,1,400,"","","training","","",NA,"",NA,"triangle","hexagon",2,3,"a",1.34007419099362,NA,"",NA,NA,"inlab","MacIntel",NA,NA,NA,NA
"77",47150,NA,NA,10,410,"","","training","","",NA,"",NA,"circle","hexagon",2,4,"l",2.22590048800339,NA,"",NA,NA,"inlab","MacIntel",NA,NA,NA,NA
"78",47150,NA,NA,1,411,"","","training","","",NA,"",NA,"circle","triangle",2,5,"l",2.29060838199803,NA,"",NA,NA,"inlab","MacIntel",NA,NA,NA,NA
"79",47150,NA,NA,10,421,"","","training","","",NA,"",NA,"star","triangle",2,6,"a",1.03440392099583,NA,"",NA,NA,"inlab","MacIntel",NA,NA,NA,NA
"80",47150,NA,NA,1,422,"","","training","","",NA,"",NA,"star","hexagon",2,7,"a",3.06055092099996,NA,"",NA,NA,"inlab","MacIntel",NA,NA,NA,NA
"81",47150,NA,NA,1,423,"","","training","","",NA,"",NA,"circle","star",2,8,"a",2.16323240700149,NA,"",NA,NA,"inlab","MacIntel",NA,NA,NA,NA
"82",47150,NA,NA,1,424,"","","training","","",NA,"",NA,"hexagon","circle",2,9,"l",0.408202799000719,NA,"",NA,NA,"inlab","MacIntel",NA,NA,NA,NA
"83",47150,NA,NA,1,425,"","","training","","",NA,"",NA,"hexagon","star",2,10,"a",0.434818497997185,NA,"",NA,NA,"inlab","MacIntel",NA,NA,NA,NA
"84",47150,NA,NA,1,426,"","","training","","",NA,"",NA,"hexagon","triangle",2,11,"l",0.901941677002469,NA,"",NA,NA,"inlab","MacIntel",NA,NA,NA,NA
"85",47150,NA,NA,1,427,"","","training","","",NA,"",NA,"star","triangle",2,12,"a",0.620527221995872,NA,"",NA,NA,"inlab","MacIntel",NA,NA,NA,NA
"86",47150,NA,NA,1,428,"","","training","","",NA,"",NA,"triangle","hexagon",2,13,"l",0.217807877001178,NA,"",NA,NA,"inlab","MacIntel",NA,NA,NA,NA
"87",47150,NA,NA,10,438,"","","training","","",NA,"",NA,"circle","hexagon",2,14,"a",0.651435143998242,NA,"",NA,NA,"inlab","MacIntel",NA,NA,NA,NA
"88",47150,NA,NA,10,448,"","","training","","",NA,"",NA,"circle","star",2,15,"a",1.21330106100504,NA,"",NA,NA,"inlab","MacIntel",NA,NA,NA,NA
"89",47150,NA,NA,10,458,"","","training","","",NA,"",NA,"triangle","circle",2,16,"l",0.959976129001006,NA,"",NA,NA,"inlab","MacIntel",NA,NA,NA,NA
"90",47150,NA,NA,10,468,"","","training","","",NA,"",NA,"hexagon","triangle",2,17,"a",4.84670621899568,NA,"",NA,NA,"inlab","MacIntel",NA,NA,NA,NA
"91",47150,NA,NA,1,469,"","","training","","",NA,"",NA,"hexagon","star",2,18,"l",0.803085508996446,NA,"",NA,NA,"inlab","MacIntel",NA,NA,NA,NA
"92",47150,NA,NA,10,479,"","","training","","",NA,"",NA,"hexagon","circle",2,19,"a",0.447583014996781,NA,"",NA,NA,"inlab","MacIntel",NA,NA,NA,NA
"93",47150,NA,NA,10,489,"","","training","","",NA,"",NA,"star","circle",2,20,"a",0.625953537004534,NA,"",NA,NA,"inlab","MacIntel",NA,NA,NA,NA
"94",47150,NA,NA,1,490,"","","training","","",NA,"",NA,"triangle","star",2,21,"a",0.661060263999389,NA,"",NA,NA,"inlab","MacIntel",NA,NA,NA,NA
"95",47150,NA,NA,1,491,"","","training","","",NA,"",NA,"circle","triangle",2,22,"l",1.35922169400146,NA,"",NA,NA,"inlab","MacIntel",NA,NA,NA,NA
"96",47150,NA,NA,1,492,"","","training","","",NA,"",NA,"star","hexagon",2,23,"a",0.684444364997034,NA,"",NA,NA,"inlab","MacIntel",NA,NA,NA,NA
"97",47150,NA,NA,1,493,"","","training","","",NA,"",NA,"circle","star",2,24,"l",0.549289099995804,NA,"",NA,NA,"inlab","MacIntel",NA,NA,NA,NA
"98",47150,NA,NA,1,494,"","","training","","",NA,"",NA,"triangle","star",2,25,"a",0.315618460997939,NA,"",NA,NA,"inlab","MacIntel",NA,NA,NA,NA
"99",47150,NA,NA,10,504,"","","training","","",NA,"",NA,"circle","triangle",2,26,"a",0.85164285099745,NA,"",NA,NA,"inlab","MacIntel",NA,NA,NA,NA
"100",47150,NA,NA,10,514,"","","training","","",NA,"",NA,"star","circle",2,27,"a",3.46102209200035,NA,"",NA,NA,"inlab","MacIntel",NA,NA,NA,NA
"101",47150,NA,NA,10,524,"","","training","","",NA,"",NA,"circle","hexagon",2,28,"a",0.779499322001357,NA,"",NA,NA,"inlab","MacIntel",NA,NA,NA,NA
"102",47150,NA,NA,10,534,"","","training","","",NA,"",NA,"star","hexagon",2,29,"a",1.09642980500212,NA,"",NA,NA,"inlab","MacIntel",NA,NA,NA,NA
"103",47150,NA,NA,10,544,"","","training","","",NA,"",NA,"triangle","hexagon",2,30,"l",5.25696845099446,NA,"",NA,NA,"inlab","MacIntel",NA,NA,NA,NA
"104",47150,NA,NA,1,545,"","","training","","",NA,"",NA,"triangle","circle",2,31,"a",2.57166734599741,NA,"",NA,NA,"inlab","MacIntel",NA,NA,NA,NA
"105",47150,NA,NA,10,555,"","","training","","",NA,"",NA,"hexagon","circle",2,32,"a",1.67168142699666,NA,"",NA,NA,"inlab","MacIntel",NA,NA,NA,NA
"106",47150,NA,NA,10,565,"","","training","","",NA,"",NA,"star","triangle",2,33,"a",1.31924910499947,NA,"",NA,NA,"inlab","MacIntel",NA,NA,NA,NA
"107",47150,NA,NA,10,575,"","","training","","",NA,"",NA,"hexagon","star",2,34,"l",1.82154007100326,NA,"",NA,NA,"inlab","MacIntel",NA,NA,NA,NA
"108",47150,NA,NA,10,585,"","","training","","",NA,"",NA,"hexagon","triangle",2,35,"a",8.11104512499878,NA,"",NA,NA,"inlab","MacIntel",NA,NA,NA,NA
"109",47150,1,0,0,585,"repeat","letter","lettRpt","noRew","circle",167,"F",0,"","",NA,NA,"",NA,1.1133892220023,"j",0,NA,"inlab","MacIntel",NA,NA,NA,NA
"110",47150,1,0,0,585,"repeat","letter","lettRpt","noRew","triangle",125,"Y",0,"","",NA,NA,"",NA,0.879417921998538,"k",1,NA,"inlab","MacIntel",NA,NA,NA,NA
"111",47150,1,0,0,585,"repeat","letter","lettRpt","noRew","star",146,"S",0,"","",NA,NA,"",NA,1.0860248070021,"k",2,NA,"inlab","MacIntel",NA,NA,NA,NA
"112",47150,1,0,0,585,"repeat","letter","lettRpt","noRew","hexagon",181,"H",0,"","",NA,NA,"",NA,0.766862680000486,"j",3,NA,"inlab","MacIntel",NA,NA,NA,NA
"113",47150,1,0,0,585,"repeat","letter","lettRpt","noRew","triangle",167,"F",0,"","",NA,NA,"",NA,0.681706964998739,"j",4,NA,"inlab","MacIntel",NA,NA,NA,NA
"114",47150,1,0,0,585,"repeat","letter","lettRpt","noRew","circle",125,"Y",0,"","",NA,NA,"",NA,0.801576465004473,"k",5,NA,"inlab","MacIntel",NA,NA,NA,NA
"115",47150,1,0,0,585,"repeat","letter","lettRpt","noRew","hexagon",146,"S",0,"","",NA,NA,"",NA,0.923923318994639,"k",6,NA,"inlab","MacIntel",NA,NA,NA,NA
"116",47150,1,0,0,585,"repeat","letter","lettRpt","noRew","star",181,"H",0,"","",NA,NA,"",NA,0.679857611998159,"j",7,NA,"inlab","MacIntel",NA,NA,NA,NA
"117",47150,1,0,0,585,"repeat","letter","lettRpt","noRew","circle",174,"Y",0,"","",NA,NA,"",NA,0.607989172000089,"k",8,NA,"inlab","MacIntel",NA,NA,NA,NA
"118",47150,1,0,0,585,"repeat","letter","lettRpt","noRew","hexagon",167,"F",0,"","",NA,NA,"",NA,0.593034245997842,"j",9,NA,"inlab","MacIntel",NA,NA,NA,NA
"119",47150,1,0,0,585,"repeat","letter","lettRpt","noRew","hexagon",181,"U",0,"","",NA,NA,"",NA,0.84512576200359,"k",10,NA,"inlab","MacIntel",NA,NA,NA,NA
"120",47150,1,0,0,585,"repeat","letter","lettRpt","noRew","circle",160,"S",0,"","",NA,NA,"",NA,1.07786097799544,"k",11,NA,"inlab","MacIntel",NA,NA,NA,NA
"121",47150,1,0,0,585,"repeat","letter","lettRpt","noRew","circle",146,"U",0,"","",NA,NA,"",NA,0.660284782003146,"k",12,NA,"inlab","MacIntel",NA,NA,NA,NA
"122",47150,1,0,0,585,"repeat","letter","lettRpt","noRew","triangle",181,"W",0,"","",NA,NA,"",NA,0.836424246997922,"k",13,NA,"inlab","MacIntel",NA,NA,NA,NA
"123",47150,1,0,0,585,"repeat","letter","lettRpt","noRew","star",167,"H",0,"","",NA,NA,"",NA,0.917970746995707,"j",14,NA,"inlab","MacIntel",NA,NA,NA,NA
"124",47150,1,0,0,585,"repeat","letter","lettRpt","noRew","triangle",160,"D",0,"","",NA,NA,"",NA,1.41014596800233,"j",15,NA,"inlab","MacIntel",NA,NA,NA,NA
"125",47150,1,0,0,585,"repeat","letter","lettRpt","noRew","hexagon",167,"H",0,"","",NA,NA,"",NA,0.707376097001543,"j",16,NA,"inlab","MacIntel",NA,NA,NA,NA
"126",47150,1,0,0,585,"repeat","letter","lettRpt","noRew","circle",132,"F",0,"","",NA,NA,"",NA,0.683152038996923,"j",17,NA,"inlab","MacIntel",NA,NA,NA,NA
"127",47150,1,0,0,585,"repeat","letter","lettRpt","noRew","triangle",125,"W",0,"","",NA,NA,"",NA,2.20328315900406,"k",18,NA,"inlab","MacIntel",NA,NA,NA,NA
"128",47150,1,0,0,585,"repeat","letter","lettRpt","noRew","hexagon",181,"Y",0,"","",NA,NA,"",NA,0.707308247998299,"k",19,NA,"inlab","MacIntel",NA,NA,NA,NA
"129",47150,1,0,0,585,"repeat","letter","lettRpt","noRew","hexagon",167,"B",0,"","",NA,NA,"",NA,2.37590590900072,"j",20,NA,"inlab","MacIntel",NA,NA,NA,NA
"130",47150,1,0,0,585,"repeat","letter","lettRpt","noRew","star",181,"W",0,"","",NA,NA,"",NA,0.985501164999732,"k",21,NA,"inlab","MacIntel",NA,NA,NA,NA
"131",47150,1,0,0,585,"repeat","letter","lettRpt","noRew","triangle",125,"Y",0,"","",NA,NA,"",NA,1.26860465699428,"k",22,NA,"inlab","MacIntel",NA,NA,NA,NA
"132",47150,1,0,0,585,"repeat","letter","lettRpt","noRew","star",146,"F",0,"","",NA,NA,"",NA,1.6357437619954,"j",23,NA,"inlab","MacIntel",NA,NA,NA,NA
"133",47150,1,0,0,585,"repeat","letter","lettRpt","noRew","star",160,"H",0,"","",NA,NA,"",NA,1.57926628299901,"j",24,NA,"inlab","MacIntel",NA,NA,NA,NA
"134",47150,1,0,0,585,"repeat","letter","lettRpt","noRew","hexagon",132,"D",0,"","",NA,NA,"",NA,1.23683761400025,"j",25,NA,"inlab","MacIntel",NA,NA,NA,NA
"135",47150,1,0,0,585,"repeat","letter","lettRpt","noRew","hexagon",174,"U",0,"","",NA,NA,"",NA,0.701824386000226,"k",26,NA,"inlab","MacIntel",NA,NA,NA,NA
"136",47150,1,0,0,585,"repeat","letter","lettRpt","noRew","triangle",139,"F",0,"","",NA,NA,"",NA,0.748310752998805,"j",27,NA,"inlab","MacIntel",NA,NA,NA,NA
"137",47150,1,0,0,585,"repeat","letter","lettRpt","noRew","star",125,"B",0,"","",NA,NA,"",NA,0.640662326994061,"j",28,NA,"inlab","MacIntel",NA,NA,NA,NA
"138",47150,1,0,0,585,"repeat","letter","lettRpt","noRew","hexagon",167,"D",0,"","",NA,NA,"",NA,0.697935491996759,"j",29,NA,"inlab","MacIntel",NA,NA,NA,NA
"139",47150,1,0,0,585,"repeat","letter","lettRpt","noRew","triangle",132,"F",0,"","",NA,NA,"",NA,0.823893327004043,"j",30,NA,"inlab","MacIntel",NA,NA,NA,NA
"140",47150,1,0,0,585,"repeat","letter","lettRpt","noRew","hexagon",160,"W",0,"","",NA,NA,"",NA,0.752895816003729,"k",31,NA,"inlab","MacIntel",NA,NA,NA,NA
"141",47150,1,0,0,585,"repeat","letter","lettRpt","noRew","hexagon",125,"Y",0,"","",NA,NA,"",NA,0.790273634993355,"k",32,NA,"inlab","MacIntel",NA,NA,NA,NA
"142",47150,1,0,0,585,"repeat","letter","lettRpt","noRew","triangle",146,"D",0,"","",NA,NA,"",NA,0.64883500799624,"j",33,NA,"inlab","MacIntel",NA,NA,NA,NA
"143",47150,1,0,0,585,"repeat","letter","lettRpt","noRew","triangle",181,"B",0,"","",NA,NA,"",NA,0.673402009997517,"j",34,NA,"inlab","MacIntel",NA,NA,NA,NA
"144",47150,1,0,0,585,"repeat","letter","lettRpt","noRew","circle",174,"W",0,"","",NA,NA,"",NA,0.568639709999843,"k",35,NA,"inlab","MacIntel",NA,NA,NA,NA
"145",47150,1,0,0,585,"repeat","letter","lettRpt","noRew","circle",139,"F",0,"","",NA,NA,"",NA,2.17984530299873,"j",36,NA,"inlab","MacIntel",NA,NA,NA,NA
"146",47150,1,0,0,585,"repeat","letter","lettRpt","noRew","star",167,"B",0,"","",NA,NA,"",NA,1.1091618749997,"j",37,NA,"inlab","MacIntel",NA,NA,NA,NA
"147",47150,1,0,0,585,"repeat","letter","lettRpt","noRew","hexagon",174,"U",0,"","",NA,NA,"",NA,1.14739599099994,"k",38,NA,"inlab","MacIntel",NA,NA,NA,NA
"148",47150,1,0,0,585,"repeat","letter","lettRpt","noRew","circle",125,"S",0,"","",NA,NA,"",NA,2.07934819799993,"k",39,NA,"inlab","MacIntel",NA,NA,NA,NA
"149",47150,1,0,0,585,"repeat","letter","lettRpt","noRew","hexagon",139,"W",0,"","",NA,NA,"",NA,0.869091465996462,"k",40,NA,"inlab","MacIntel",NA,NA,NA,NA
"150",47150,1,0,0,585,"repeat","letter","lettRpt","noRew","triangle",125,"D",0,"","",NA,NA,"",NA,1.32455096999911,"j",41,NA,"inlab","MacIntel",NA,NA,NA,NA
"151",47150,1,0,0,585,"repeat","letter","lettRpt","noRew","hexagon",146,"B",0,"","",NA,NA,"",NA,0.857436475002032,"j",42,NA,"inlab","MacIntel",NA,NA,NA,NA
"152",47150,1,0,0,585,"repeat","letter","lettRpt","noRew","triangle",174,"U",0,"","",NA,NA,"",NA,0.690439416997833,"k",43,NA,"inlab","MacIntel",NA,NA,NA,NA
"153",47150,1,0,0,585,"repeat","letter","lettRpt","noRew","hexagon",167,"S",0,"","",NA,NA,"",NA,0.874253679001413,"k",44,NA,"inlab","MacIntel",NA,NA,NA,NA
"154",47150,1,0,0,585,"repeat","letter","lettRpt","noRew","triangle",125,"Y",0,"","",NA,NA,"",NA,0.775061142005143,"k",45,NA,"inlab","MacIntel",NA,NA,NA,NA
"155",47150,1,0,0,585,"repeat","letter","lettRpt","noRew","circle",181,"H",0,"","",NA,NA,"",NA,0.901083615994139,"j",46,NA,"inlab","MacIntel",NA,NA,NA,NA
"156",47150,1,0,0,585,"repeat","letter","lettRpt","noRew","triangle",160,"W",0,"","",NA,NA,"",NA,0.858165221005038,"k",47,NA,"inlab","MacIntel",NA,NA,NA,NA
"157",47150,1,0,0,585,"repeat","letter","lettRpt","noRew","star",125,"Y",0,"","",NA,NA,"",NA,0.713262940000277,"k",48,NA,"inlab","MacIntel",NA,NA,NA,NA
"158",47150,1,0,0,585,"repeat","letter","lettRpt","noRew","triangle",132,"B",0,"","",NA,NA,"",NA,0.841089596993697,"j",49,NA,"inlab","MacIntel",NA,NA,NA,NA
"159",47150,1,0,0,585,"repeat","letter","lettRpt","noRew","hexagon",181,"D",0,"","",NA,NA,"",NA,0.760307396994904,"j",50,NA,"inlab","MacIntel",NA,NA,NA,NA
"160",47150,1,0,0,585,"repeat","letter","lettRpt","noRew","star",167,"U",0,"","",NA,NA,"",NA,1.34212682700309,"k",51,NA,"inlab","MacIntel",NA,NA,NA,NA
"161",47150,1,0,0,585,"repeat","letter","lettRpt","noRew","triangle",125,"H",0,"","",NA,NA,"",NA,0.768541313002061,"j",52,NA,"inlab","MacIntel",NA,NA,NA,NA
"162",47150,1,0,0,585,"repeat","letter","lettRpt","noRew","circle",181,"B",0,"","",NA,NA,"",NA,0.701818122994155,"j",53,NA,"inlab","MacIntel",NA,NA,NA,NA
"163",47150,1,0,0,585,"repeat","letter","lettRpt","noRew","triangle",174,"S",0,"","",NA,NA,"",NA,2.18682060299761,"k",54,NA,"inlab","MacIntel",NA,NA,NA,NA
"164",47150,1,0,0,585,"repeat","letter","lettRpt","noRew","star",146,"F",0,"","",NA,NA,"",NA,1.22740499200154,"j",55,NA,"inlab","MacIntel",NA,NA,NA,NA
"165",47150,1,0,0,585,"repeat","letter","lettRpt","noRew","hexagon",160,"U",0,"","",NA,NA,"",NA,1.51726793599664,"k",56,NA,"inlab","MacIntel",NA,NA,NA,NA
"166",47150,1,0,0,585,"repeat","letter","lettRpt","noRew","star",146,"S",0,"","",NA,NA,"",NA,1.2417403349973,"k",57,NA,"inlab","MacIntel",NA,NA,NA,NA
"167",47150,1,0,0,585,"repeat","letter","lettRpt","noRew","circle",125,"B",0,"","",NA,NA,"",NA,0.890764335999847,"j",58,NA,"inlab","MacIntel",NA,NA,NA,NA
"168",47150,1,0,0,585,"repeat","letter","lettRpt","noRew","triangle",132,"H",0,"","",NA,NA,"",NA,1.64794236300077,"j",59,NA,"inlab","MacIntel",NA,NA,NA,NA
"169",47150,1,0,0,585,"repeat","letter","lettRpt","noRew","hexagon",174,"B",0,"","",NA,NA,"",NA,0.624250663997373,"j",60,NA,"inlab","MacIntel",NA,NA,NA,NA
"170",47150,1,0,0,585,"repeat","letter","lettRpt","noRew","triangle",181,"F",0,"","",NA,NA,"",NA,0.850850461996743,"j",61,NA,"inlab","MacIntel",NA,NA,NA,NA
"171",47150,1,0,0,585,"repeat","letter","lettRpt","noRew","triangle",146,"Y",0,"","",NA,NA,"",NA,1.91351771599875,"k",62,NA,"inlab","MacIntel",NA,NA,NA,NA
"172",47150,1,0,0,585,"repeat","letter","lettRpt","noRew","hexagon",160,"S",0,"","",NA,NA,"",NA,1.57499763799569,"k",63,NA,"inlab","MacIntel",NA,NA,NA,NA
"173",47150,0,0,0,585,"switch","number",NA,"noRew","triangle",146,"U",0,"","",NA,NA,"",NA,1.56929776600009,"f",NA,0,"inlab","MacIntel",NA,NA,NA,NA
"174",47150,1,1,10,595,"switch","letter","lettSwt","noRew","hexagon",174,"D",0,"","",NA,NA,"",NA,1.41197333799937,"j",NA,1,"inlab","MacIntel",NA,NA,NA,NA
"175",47150,1,0,10,605,"repeat","letter","lettRpt","noRew","triangle",181,"H",0,"","",NA,NA,"",NA,1.85330480899574,"j",NA,2,"inlab","MacIntel",NA,NA,NA,NA
"176",47150,1,0,0,605,"repeat","letter","lettRpt","noRew","hexagon",125,"F",0,"","",NA,NA,"",NA,0.891497053999046,"j",NA,3,"inlab","MacIntel",NA,NA,NA,NA
"177",47150,1,0,10,615,"repeat","letter","lettRpt","noRew","hexagon",132,"W",0,"","",NA,NA,"",NA,0.675296900997637,"k",NA,4,"inlab","MacIntel",NA,NA,NA,NA
"178",47150,1,0,1,616,"repeat","letter","lettRpt","noRew","triangle",139,"Y",0,"","",NA,NA,"",NA,0.507314832000702,"k",NA,5,"inlab","MacIntel",NA,NA,NA,NA
"179",47150,1,0,10,626,"repeat","letter","lettRpt","noRew","hexagon",160,"B",0,"","",NA,NA,"",NA,0.696482667000964,"j",NA,6,"inlab","MacIntel",NA,NA,NA,NA
"180",47150,1,0,1,627,"repeat","letter","lettRpt","noRew","triangle",167,"S",0,"","",NA,NA,"",NA,0.55958569500217,"k",NA,7,"inlab","MacIntel",NA,NA,NA,NA
"181",47150,1,0,0,627,"repeat","letter","lettRpt","noRew","hexagon",146,"U",0,"","",NA,NA,"",NA,0.924120219999168,"k",NA,8,"inlab","MacIntel",NA,NA,NA,NA
"182",47150,1,0,1,628,"repeat","letter","lettRpt","noRew","triangle",174,"D",0,"","",NA,NA,"",NA,0.54485145900253,"j",NA,9,"inlab","MacIntel",NA,NA,NA,NA
"183",47150,1,0,1,629,"repeat","letter","lettRpt","noRew","triangle",181,"H",0,"","",NA,NA,"",NA,0.614428908993432,"j",NA,10,"inlab","MacIntel",NA,NA,NA,NA
"184",47150,1,0,10,639,"repeat","letter","lettRpt","noRew","hexagon",125,"F",0,"","",NA,NA,"",NA,0.673571141996945,"j",NA,11,"inlab","MacIntel",NA,NA,NA,NA
"185",47150,1,0,1,640,"repeat","letter","lettRpt","noRew","triangle",132,"W",0,"","",NA,NA,"",NA,0.385056089995487,"k",NA,12,"inlab","MacIntel",NA,NA,NA,NA
"186",47150,1,0,10,650,"repeat","letter","lettRpt","noRew","hexagon",139,"Y",0,"","",NA,NA,"",NA,0.50076206799713,"k",NA,13,"inlab","MacIntel",NA,NA,NA,NA
"187",47150,1,0,1,651,"repeat","letter","lettRpt","noRew","triangle",160,"B",0,"","",NA,NA,"",NA,0.553316931000154,"j",NA,14,"inlab","MacIntel",NA,NA,NA,NA
"188",47150,1,0,0,651,"repeat","letter","lettRpt","noRew","hexagon",167,"S",0,"","",NA,NA,"",NA,1.14172901100392,"k",NA,15,"inlab","MacIntel",NA,NA,NA,NA
"189",47150,1,0,1,652,"repeat","letter","lettRpt","noRew","triangle",139,"D",0,"","",NA,NA,"",NA,0.545545963999757,"j",NA,16,"inlab","MacIntel",NA,NA,NA,NA
"190",47150,1,0,0,652,"repeat","letter","lettRpt","noRew","hexagon",125,"U",0,"","",NA,NA,"",NA,0.878340272000059,"k",NA,17,"inlab","MacIntel",NA,NA,NA,NA
"191",47150,1,0,1,653,"repeat","letter","lettRpt","noRew","hexagon",181,"B",0,"","",NA,NA,"",NA,0.518042613999569,"j",NA,18,"inlab","MacIntel",NA,NA,NA,NA
"192",47150,1,0,10,663,"repeat","letter","lettRpt","noRew","triangle",132,"S",0,"","",NA,NA,"",NA,0.386514911995619,"k",NA,19,"inlab","MacIntel",NA,NA,NA,NA
"193",47150,1,0,10,673,"repeat","letter","lettRpt","noRew","triangle",146,"W",0,"","",NA,NA,"",NA,0.678118513998925,"k",NA,20,"inlab","MacIntel",NA,NA,NA,NA
"194",47150,1,0,10,683,"repeat","letter","lettRpt","noRew","hexagon",174,"F",0,"","",NA,NA,"",NA,0.66139984199981,"j",NA,21,"inlab","MacIntel",NA,NA,NA,NA
"195",47150,1,0,0,683,"repeat","letter","lettRpt","noRew","hexagon",167,"Y",0,"","",NA,NA,"",NA,1.14229610400071,"k",NA,22,"inlab","MacIntel",NA,NA,NA,NA
"196",47150,1,0,1,684,"repeat","letter","lettRpt","noRew","triangle",160,"H",0,"","",NA,NA,"",NA,0.642132182998466,"j",NA,23,"inlab","MacIntel",NA,NA,NA,NA
"197",47150,1,0,1,685,"repeat","letter","lettRpt","noRew","hexagon",132,"W",0,"","",NA,NA,"",NA,0.490151943995443,"k",NA,24,"inlab","MacIntel",NA,NA,NA,NA
"198",47150,1,0,1,686,"repeat","letter","lettRpt","noRew","triangle",139,"U",0,"","",NA,NA,"",NA,1.05783937699744,"k",NA,25,"inlab","MacIntel",NA,NA,NA,NA
"199",47150,1,0,10,696,"repeat","letter","lettRpt","noRew","hexagon",146,"D",0,"","",NA,NA,"",NA,0.745158450001327,"j",NA,26,"inlab","MacIntel",NA,NA,NA,NA
"200",47150,0,0,0,696,"repeat","letter",NA,"noRew","triangle",174,"Y",0,"","",NA,NA,"",NA,0.958779879001668,"j",NA,27,"inlab","MacIntel",NA,NA,NA,NA
"201",47150,1,1,0,696,"repeat","letter","lettRpt","noRew","hexagon",167,"F",0,"","",NA,NA,"",NA,0.81055128799926,"j",NA,28,"inlab","MacIntel",NA,NA,NA,NA
"202",47150,1,0,1,697,"repeat","letter","lettRpt","noRew","triangle",125,"S",0,"","",NA,NA,"",NA,0.708646745006263,"k",NA,29,"inlab","MacIntel",NA,NA,NA,NA
"203",47150,1,0,1,698,"repeat","letter","lettRpt","noRew","triangle",181,"B",0,"","",NA,NA,"",NA,0.514755948002858,"j",NA,30,"inlab","MacIntel",NA,NA,NA,NA
"204",47150,1,0,10,708,"repeat","letter","lettRpt","noRew","hexagon",160,"H",0,"","",NA,NA,"",NA,0.536399700002221,"j",NA,31,"inlab","MacIntel",NA,NA,NA,NA
"205",47150,1,0,10,718,"repeat","letter","lettRpt","noRew","star",181,"F",1,"","",NA,NA,"",NA,0.804972291996819,"j",NA,0,"inlab","MacIntel",NA,NA,NA,NA
"206",47150,1,0,0,718,"repeat","letter","lettRpt","noRew","circle",174,"D",1,"","",NA,NA,"",NA,0.742972817999544,"j",NA,1,"inlab","MacIntel",NA,NA,NA,NA
"207",47150,1,0,10,728,"repeat","letter","lettRpt","noRew","circle",160,"W",1,"","",NA,NA,"",NA,0.517280107000261,"k",NA,2,"inlab","MacIntel",NA,NA,NA,NA
"208",47150,1,0,1,729,"repeat","letter","lettRpt","noRew","star",132,"S",1,"","",NA,NA,"",NA,0.706403250995209,"k",NA,3,"inlab","MacIntel",NA,NA,NA,NA
"209",47150,1,0,1,730,"repeat","letter","lettRpt","noRew","star",125,"Y",1,"","",NA,NA,"",NA,0.54351902599592,"k",NA,4,"inlab","MacIntel",NA,NA,NA,NA
"210",47150,1,0,0,730,"repeat","letter","lettRpt","noRew","circle",139,"B",1,"","",NA,NA,"",NA,0.652467448999232,"j",NA,5,"inlab","MacIntel",NA,NA,NA,NA
"211",47150,1,0,1,731,"repeat","letter","lettRpt","noRew","star",146,"U",1,"","",NA,NA,"",NA,0.94056064599863,"k",NA,6,"inlab","MacIntel",NA,NA,NA,NA
"212",47150,1,0,0,731,"repeat","letter","lettRpt","noRew","circle",167,"H",1,"","",NA,NA,"",NA,1.00232882300043,"j",NA,7,"inlab","MacIntel",NA,NA,NA,NA
"213",47150,1,0,10,741,"repeat","letter","lettRpt","noRew","star",181,"F",1,"","",NA,NA,"",NA,0.929506796004716,"j",NA,8,"inlab","MacIntel",NA,NA,NA,NA
"214",47150,1,0,0,741,"repeat","letter","lettRpt","noRew","circle",174,"D",1,"","",NA,NA,"",NA,0.775816841000051,"j",NA,9,"inlab","MacIntel",NA,NA,NA,NA
"215",47150,1,0,0,741,"repeat","letter","lettRpt","noRew","circle",160,"W",1,"","",NA,NA,"",NA,0.59454475199891,"k",NA,10,"inlab","MacIntel",NA,NA,NA,NA
"216",47150,1,0,10,751,"repeat","letter","lettRpt","noRew","star",132,"S",1,"","",NA,NA,"",NA,0.621943692996865,"k",NA,11,"inlab","MacIntel",NA,NA,NA,NA
"217",47150,1,0,10,761,"repeat","letter","lettRpt","noRew","circle",125,"Y",1,"","",NA,NA,"",NA,0.53476886000135,"k",NA,12,"inlab","MacIntel",NA,NA,NA,NA
"218",47150,1,0,1,762,"repeat","letter","lettRpt","noRew","star",139,"B",1,"","",NA,NA,"",NA,0.58775983400119,"j",NA,13,"inlab","MacIntel",NA,NA,NA,NA
"219",47150,1,0,0,762,"repeat","letter","lettRpt","noRew","circle",146,"U",1,"","",NA,NA,"",NA,0.670559265003249,"k",NA,14,"inlab","MacIntel",NA,NA,NA,NA
"220",47150,1,0,1,763,"repeat","letter","lettRpt","noRew","star",167,"H",1,"","",NA,NA,"",NA,0.677967429001001,"j",NA,15,"inlab","MacIntel",NA,NA,NA,NA
"221",47150,1,0,1,764,"repeat","letter","lettRpt","noRew","star",132,"S",1,"","",NA,NA,"",NA,1.15752407800028,"k",NA,16,"inlab","MacIntel",NA,NA,NA,NA
"222",47150,1,0,0,764,"repeat","letter","lettRpt","noRew","circle",181,"W",1,"","",NA,NA,"",NA,0.993354601996543,"k",NA,17,"inlab","MacIntel",NA,NA,NA,NA
"223",47150,1,0,0,764,"repeat","letter","lettRpt","noRew","circle",146,"Y",1,"","",NA,NA,"",NA,0.68495516099938,"k",NA,18,"inlab","MacIntel",NA,NA,NA,NA
"224",47150,1,0,1,765,"repeat","letter","lettRpt","noRew","star",160,"B",1,"","",NA,NA,"",NA,0.409466251003323,"j",NA,19,"inlab","MacIntel",NA,NA,NA,NA
"225",47150,1,0,0,765,"repeat","letter","lettRpt","noRew","circle",125,"H",1,"","",NA,NA,"",NA,0.701115275005577,"j",NA,20,"inlab","MacIntel",NA,NA,NA,NA
"226",47150,1,0,1,766,"repeat","letter","lettRpt","noRew","star",139,"D",1,"","",NA,NA,"",NA,1.2266085040028,"j",NA,21,"inlab","MacIntel",NA,NA,NA,NA
"227",47150,1,0,10,776,"repeat","letter","lettRpt","noRew","circle",174,"F",1,"","",NA,NA,"",NA,0.532626104999508,"j",NA,22,"inlab","MacIntel",NA,NA,NA,NA
"228",47150,1,0,10,786,"repeat","letter","lettRpt","noRew","star",167,"U",1,"","",NA,NA,"",NA,0.728793262998806,"k",NA,23,"inlab","MacIntel",NA,NA,NA,NA
"229",47150,0,0,0,786,"repeat","letter",NA,"noRew","circle",146,"Y",1,"","",NA,NA,"",NA,0.935492231998069,"j",NA,24,"inlab","MacIntel",NA,NA,NA,NA
"230",47150,1,1,1,787,"repeat","letter","lettRpt","noRew","star",125,"H",1,"","",NA,NA,"",NA,0.755217190999247,"j",NA,25,"inlab","MacIntel",NA,NA,NA,NA
"231",47150,1,0,0,787,"repeat","letter","lettRpt","noRew","circle",139,"F",1,"","",NA,NA,"",NA,1.08631030399556,"j",NA,26,"inlab","MacIntel",NA,NA,NA,NA
"232",47150,1,0,10,797,"repeat","letter","lettRpt","noRew","star",167,"B",1,"","",NA,NA,"",NA,0.612467054997978,"j",NA,27,"inlab","MacIntel",NA,NA,NA,NA
"233",47150,1,0,0,797,"repeat","letter","lettRpt","noRew","circle",132,"U",1,"","",NA,NA,"",NA,0.647138577995065,"k",NA,28,"inlab","MacIntel",NA,NA,NA,NA
"234",47150,0,0,0,797,"repeat","letter",NA,"noRew","star",160,"W",1,"","",NA,NA,"",NA,0.848373781998816,"j",NA,29,"inlab","MacIntel",NA,NA,NA,NA
"235",47150,1,1,1,798,"repeat","letter","lettRpt","noRew","star",174,"S",1,"","",NA,NA,"",NA,1.14427263399557,"k",NA,30,"inlab","MacIntel",NA,NA,NA,NA
"236",47150,1,0,0,798,"repeat","letter","lettRpt","noRew","circle",181,"D",1,"","",NA,NA,"",NA,0.628832328999124,"j",NA,31,"inlab","MacIntel",NA,NA,NA,NA
"237",47150,1,0,1,799,"repeat","letter","lettRpt","noRew","star",181,"S",2,"","",NA,NA,"",NA,0.968788922997192,"k",NA,0,"inlab","MacIntel",NA,NA,NA,NA
"238",47150,1,0,0,799,"repeat","letter","lettRpt","noRew","circle",174,"W",2,"","",NA,NA,"",NA,0.651790967000125,"k",NA,1,"inlab","MacIntel",NA,NA,NA,NA
"239",47150,1,0,1,800,"repeat","letter","lettRpt","noRew","circle",146,"D",2,"","",NA,NA,"",NA,0.57807204999699,"j",NA,2,"inlab","MacIntel",NA,NA,NA,NA
"240",47150,1,0,1,801,"repeat","letter","lettRpt","noRew","star",167,"F",2,"","",NA,NA,"",NA,0.590826016996289,"j",NA,3,"inlab","MacIntel",NA,NA,NA,NA
"241",47150,1,0,10,811,"repeat","letter","lettRpt","noRew","star",132,"B",2,"","",NA,NA,"",NA,0.545412544997816,"j",NA,4,"inlab","MacIntel",NA,NA,NA,NA
"242",47150,1,0,0,811,"repeat","letter","lettRpt","noRew","circle",125,"U",2,"","",NA,NA,"",NA,0.935074952998548,"k",NA,5,"inlab","MacIntel",NA,NA,NA,NA
"243",47150,1,0,10,821,"repeat","letter","lettRpt","noRew","star",139,"Y",2,"","",NA,NA,"",NA,1.40213034499902,"k",NA,6,"inlab","MacIntel",NA,NA,NA,NA
"244",47150,1,0,10,831,"repeat","letter","lettRpt","noRew","circle",160,"H",2,"","",NA,NA,"",NA,0.63497797799937,"j",NA,7,"inlab","MacIntel",NA,NA,NA,NA
"245",47150,1,0,1,832,"repeat","letter","lettRpt","noRew","star",181,"S",2,"","",NA,NA,"",NA,0.962894322001375,"k",NA,8,"inlab","MacIntel",NA,NA,NA,NA
"246",47150,1,0,0,832,"repeat","letter","lettRpt","noRew","circle",174,"W",2,"","",NA,NA,"",NA,0.686613012003363,"k",NA,9,"inlab","MacIntel",NA,NA,NA,NA
"247",47150,1,0,0,832,"repeat","letter","lettRpt","noRew","circle",146,"D",2,"","",NA,NA,"",NA,0.691964399993594,"j",NA,10,"inlab","MacIntel",NA,NA,NA,NA
"248",47150,1,0,1,833,"repeat","letter","lettRpt","noRew","star",167,"F",2,"","",NA,NA,"",NA,0.100567440000304,"j",NA,11,"inlab","MacIntel",NA,NA,NA,NA
"249",47150,1,0,1,834,"repeat","letter","lettRpt","noRew","circle",132,"B",2,"","",NA,NA,"",NA,0.553143928998907,"j",NA,12,"inlab","MacIntel",NA,NA,NA,NA
"250",47150,0,0,0,834,"repeat","letter",NA,"noRew","star",125,"U",2,"","",NA,NA,"",NA,0.34060164699622,"j",NA,13,"inlab","MacIntel",NA,NA,NA,NA
"251",47150,1,1,1,835,"repeat","letter","lettRpt","noRew","circle",139,"Y",2,"","",NA,NA,"",NA,0.418140643996594,"k",NA,14,"inlab","MacIntel",NA,NA,NA,NA
"252",47150,0,0,0,835,"repeat","letter",NA,"noRew","star",160,"H",2,"","",NA,NA,"",NA,0.532585943001322,"k",NA,15,"inlab","MacIntel",NA,NA,NA,NA
"253",47150,1,1,10,845,"repeat","letter","lettRpt","noRew","star",139,"B",2,"","",NA,NA,"",NA,0.650946529000066,"j",NA,16,"inlab","MacIntel",NA,NA,NA,NA
"254",47150,1,0,10,855,"repeat","letter","lettRpt","noRew","circle",160,"Y",2,"","",NA,NA,"",NA,0.626528572000097,"k",NA,17,"inlab","MacIntel",NA,NA,NA,NA
"255",47150,1,0,0,855,"repeat","letter","lettRpt","noRew","circle",181,"S",2,"","",NA,NA,"",NA,1.0114111820003,"k",NA,18,"inlab","MacIntel",NA,NA,NA,NA
"256",47150,1,0,10,865,"repeat","letter","lettRpt","noRew","star",167,"W",2,"","",NA,NA,"",NA,0.661059887999727,"k",NA,19,"inlab","MacIntel",NA,NA,NA,NA
"257",47150,1,0,1,866,"repeat","letter","lettRpt","noRew","star",146,"F",2,"","",NA,NA,"",NA,0.606485523996525,"j",NA,20,"inlab","MacIntel",NA,NA,NA,NA
"258",47150,1,0,1,867,"repeat","letter","lettRpt","noRew","circle",132,"D",2,"","",NA,NA,"",NA,0.48002255299798,"j",NA,21,"inlab","MacIntel",NA,NA,NA,NA
"259",47150,1,0,1,868,"repeat","letter","lettRpt","noRew","circle",125,"H",2,"","",NA,NA,"",NA,0.601066404000449,"j",NA,22,"inlab","MacIntel",NA,NA,NA,NA
"260",47150,1,0,1,869,"repeat","letter","lettRpt","noRew","star",174,"U",2,"","",NA,NA,"",NA,1.05747772899485,"k",NA,23,"inlab","MacIntel",NA,NA,NA,NA
"261",47150,1,0,0,869,"repeat","letter","lettRpt","noRew","circle",125,"B",2,"","",NA,NA,"",NA,0.67415614699712,"j",NA,24,"inlab","MacIntel",NA,NA,NA,NA
"262",47150,1,0,1,870,"repeat","letter","lettRpt","noRew","star",146,"D",2,"","",NA,NA,"",NA,0.906882493000012,"j",NA,25,"inlab","MacIntel",NA,NA,NA,NA
"263",47150,1,0,0,870,"repeat","letter","lettRpt","noRew","circle",132,"H",2,"","",NA,NA,"",NA,0.663732601002266,"j",NA,26,"inlab","MacIntel",NA,NA,NA,NA
"264",47150,1,0,1,871,"repeat","letter","lettRpt","noRew","star",160,"F",2,"","",NA,NA,"",NA,0.567878164998547,"j",NA,27,"inlab","MacIntel",NA,NA,NA,NA
"265",47150,0,0,0,871,"repeat","letter",NA,"noRew","star",167,"U",2,"","",NA,NA,"",NA,0.594295920993318,"j",NA,28,"inlab","MacIntel",NA,NA,NA,NA
"266",47150,1,1,0,871,"repeat","letter","lettRpt","noRew","circle",174,"Y",2,"","",NA,NA,"",NA,0.734277671996097,"k",NA,29,"inlab","MacIntel",NA,NA,NA,NA
"267",47150,1,0,1,872,"repeat","letter","lettRpt","noRew","star",139,"S",2,"","",NA,NA,"",NA,0.611420966997684,"k",NA,30,"inlab","MacIntel",NA,NA,NA,NA
"268",47150,1,0,10,882,"repeat","letter","lettRpt","noRew","circle",181,"W",2,"","",NA,NA,"",NA,0.636838392994832,"k",NA,31,"inlab","MacIntel",NA,NA,NA,NA
"269",47150,1,0,0,882,"repeat","letter","lettRpt","noRew","hexagon",160,"Y",3,"","",NA,NA,"",NA,0.830255592001777,"k",NA,0,"inlab","MacIntel",NA,NA,NA,NA
"270",47150,1,0,1,883,"repeat","letter","lettRpt","noRew","triangle",146,"S",3,"","",NA,NA,"",NA,0.576431476001744,"k",NA,1,"inlab","MacIntel",NA,NA,NA,NA
"271",47150,1,0,10,893,"repeat","letter","lettRpt","noRew","hexagon",125,"B",3,"","",NA,NA,"",NA,0.484869482999784,"j",NA,2,"inlab","MacIntel",NA,NA,NA,NA
"272",47150,0,0,0,893,"repeat","letter",NA,"noRew","triangle",132,"F",3,"","",NA,NA,"",NA,0.530136399000185,"k",NA,3,"inlab","MacIntel",NA,NA,NA,NA
"273",47150,1,1,0,893,"repeat","letter","lettRpt","noRew","hexagon",174,"U",3,"","",NA,NA,"",NA,0.671585649994086,"k",NA,4,"inlab","MacIntel",NA,NA,NA,NA
"274",47150,1,0,1,894,"repeat","letter","lettRpt","noRew","triangle",139,"W",3,"","",NA,NA,"",NA,0.743357118997665,"k",NA,5,"inlab","MacIntel",NA,NA,NA,NA
"275",47150,1,0,10,904,"repeat","letter","lettRpt","noRew","hexagon",181,"H",3,"","",NA,NA,"",NA,0.524182134999137,"j",NA,6,"inlab","MacIntel",NA,NA,NA,NA
"276",47150,1,0,1,905,"repeat","letter","lettRpt","noRew","triangle",167,"D",3,"","",NA,NA,"",NA,0.593053582997527,"j",NA,7,"inlab","MacIntel",NA,NA,NA,NA
"277",47150,1,0,1,906,"repeat","letter","lettRpt","noRew","triangle",160,"Y",3,"","",NA,NA,"",NA,0.565193157002795,"k",NA,8,"inlab","MacIntel",NA,NA,NA,NA
"278",47150,1,0,0,906,"repeat","letter","lettRpt","noRew","hexagon",146,"S",3,"","",NA,NA,"",NA,0.681342864001635,"k",NA,9,"inlab","MacIntel",NA,NA,NA,NA
"279",47150,1,0,1,907,"repeat","letter","lettRpt","noRew","triangle",125,"B",3,"","",NA,NA,"",NA,0.69651017999422,"j",NA,10,"inlab","MacIntel",NA,NA,NA,NA
"280",47150,1,0,0,907,"repeat","letter","lettRpt","noRew","hexagon",132,"F",3,"","",NA,NA,"",NA,0.662894490000326,"j",NA,11,"inlab","MacIntel",NA,NA,NA,NA
"281",47150,1,0,0,907,"repeat","letter","lettRpt","noRew","hexagon",174,"U",3,"","",NA,NA,"",NA,1.0467199870036,"k",NA,12,"inlab","MacIntel",NA,NA,NA,NA
"282",47150,1,0,10,917,"repeat","letter","lettRpt","noRew","triangle",139,"W",3,"","",NA,NA,"",NA,0.664795718999812,"k",NA,13,"inlab","MacIntel",NA,NA,NA,NA
"283",47150,1,0,1,918,"repeat","letter","lettRpt","noRew","triangle",181,"H",3,"","",NA,NA,"",NA,0.607030819999636,"j",NA,14,"inlab","MacIntel",NA,NA,NA,NA
"284",47150,1,0,10,928,"repeat","letter","lettRpt","noRew","hexagon",167,"D",3,"","",NA,NA,"",NA,0.524205029003497,"j",NA,15,"inlab","MacIntel",NA,NA,NA,NA
"285",47150,1,0,0,928,"repeat","letter","lettRpt","noRew","hexagon",139,"U",3,"","",NA,NA,"",NA,0.887020155998471,"k",NA,16,"inlab","MacIntel",NA,NA,NA,NA
"286",47150,1,0,1,929,"repeat","letter","lettRpt","noRew","triangle",167,"B",3,"","",NA,NA,"",NA,0.5676158569986,"j",NA,17,"inlab","MacIntel",NA,NA,NA,NA
"287",47150,1,0,1,930,"repeat","letter","lettRpt","noRew","triangle",174,"Y",3,"","",NA,NA,"",NA,0.658392975004972,"k",NA,18,"inlab","MacIntel",NA,NA,NA,NA
"288",47150,1,0,0,930,"repeat","letter","lettRpt","noRew","hexagon",181,"D",3,"","",NA,NA,"",NA,0.626418487998308,"j",NA,19,"inlab","MacIntel",NA,NA,NA,NA
"289",47150,1,0,1,931,"repeat","letter","lettRpt","noRew","triangle",160,"W",3,"","",NA,NA,"",NA,0.56340883699886,"k",NA,20,"inlab","MacIntel",NA,NA,NA,NA
"290",47150,1,0,0,931,"repeat","letter","lettRpt","noRew","hexagon",125,"F",3,"","",NA,NA,"",NA,1.20930506599689,"j",NA,21,"inlab","MacIntel",NA,NA,NA,NA
"291",47150,1,0,0,931,"repeat","letter","lettRpt","noRew","hexagon",146,"S",3,"","",NA,NA,"",NA,0.667714891998912,"k",NA,22,"inlab","MacIntel",NA,NA,NA,NA
"292",47150,1,0,1,932,"repeat","letter","lettRpt","noRew","triangle",132,"H",3,"","",NA,NA,"",NA,0.522048115999496,"j",NA,23,"inlab","MacIntel",NA,NA,NA,NA
"293",47150,1,0,10,942,"repeat","letter","lettRpt","noRew","triangle",146,"F",3,"","",NA,NA,"",NA,0.5349402369975,"j",NA,24,"inlab","MacIntel",NA,NA,NA,NA
"294",47150,1,0,0,942,"repeat","letter","lettRpt","noRew","hexagon",132,"U",3,"","",NA,NA,"",NA,0.628125739996904,"k",NA,25,"inlab","MacIntel",NA,NA,NA,NA
"295",47150,1,0,1,943,"repeat","letter","lettRpt","noRew","triangle",160,"H",3,"","",NA,NA,"",NA,0.597876151994569,"j",NA,26,"inlab","MacIntel",NA,NA,NA,NA
"296",47150,1,0,1,944,"repeat","letter","lettRpt","noRew","hexagon",174,"D",3,"","",NA,NA,"",NA,0.591510661004577,"j",NA,27,"inlab","MacIntel",NA,NA,NA,NA
"297",47150,1,0,10,954,"repeat","letter","lettRpt","noRew","hexagon",181,"W",3,"","",NA,NA,"",NA,0.595411203001277,"k",NA,28,"inlab","MacIntel",NA,NA,NA,NA
"298",47150,1,0,1,955,"repeat","letter","lettRpt","noRew","triangle",167,"S",3,"","",NA,NA,"",NA,0.669734094000887,"k",NA,29,"inlab","MacIntel",NA,NA,NA,NA
"299",47150,1,0,0,955,"repeat","letter","lettRpt","noRew","hexagon",139,"B",3,"","",NA,NA,"",NA,0.96598917299707,"j",NA,30,"inlab","MacIntel",NA,NA,NA,NA
"300",47150,1,0,1,956,"repeat","letter","lettRpt","noRew","triangle",125,"Y",3,"","",NA,NA,"",NA,0.528617316995224,"k",NA,31,"inlab","MacIntel",NA,NA,NA,NA
"301",47150,1,0,0,956,"repeat","letter","lettRpt","noRew","circle",167,"B",4,"","",NA,NA,"",NA,0.75692021100258,"j",NA,0,"inlab","MacIntel",NA,NA,NA,NA
"302",47150,1,0,1,957,"repeat","letter","lettRpt","noRew","star",160,"Y",4,"","",NA,NA,"",NA,0.82377327499853,"k",NA,1,"inlab","MacIntel",NA,NA,NA,NA
"303",47150,1,0,10,967,"repeat","letter","lettRpt","noRew","star",174,"D",4,"","",NA,NA,"",NA,0.793003184000554,"j",NA,2,"inlab","MacIntel",NA,NA,NA,NA
"304",47150,1,0,0,967,"repeat","letter","lettRpt","noRew","circle",181,"S",4,"","",NA,NA,"",NA,0.619662217999576,"k",NA,3,"inlab","MacIntel",NA,NA,NA,NA
"305",47150,1,0,0,967,"repeat","letter","lettRpt","noRew","circle",132,"W",4,"","",NA,NA,"",NA,0.708879199999501,"k",NA,4,"inlab","MacIntel",NA,NA,NA,NA
"306",47150,1,0,10,977,"repeat","letter","lettRpt","noRew","star",125,"U",4,"","",NA,NA,"",NA,0.668764276997535,"k",NA,5,"inlab","MacIntel",NA,NA,NA,NA
"307",47150,1,0,1,978,"repeat","letter","lettRpt","noRew","circle",139,"H",4,"","",NA,NA,"",NA,0.546478981996188,"j",NA,6,"inlab","MacIntel",NA,NA,NA,NA
"308",47150,1,0,10,988,"repeat","letter","lettRpt","noRew","star",146,"F",4,"","",NA,NA,"",NA,0.830207439001242,"j",NA,7,"inlab","MacIntel",NA,NA,NA,NA
"309",47150,1,0,0,988,"repeat","letter","lettRpt","noRew","circle",167,"B",4,"","",NA,NA,"",NA,0.634069542000361,"j",NA,8,"inlab","MacIntel",NA,NA,NA,NA
"310",47150,1,0,1,989,"repeat","letter","lettRpt","noRew","star",160,"Y",4,"","",NA,NA,"",NA,1.02522118899651,"k",NA,9,"inlab","MacIntel",NA,NA,NA,NA
"311",47150,1,0,10,999,"repeat","letter","lettRpt","noRew","star",174,"D",4,"","",NA,NA,"",NA,0.539892651002447,"j",NA,10,"inlab","MacIntel",NA,NA,NA,NA
"312",47150,1,0,1,1000,"repeat","letter","lettRpt","noRew","circle",181,"S",4,"","",NA,NA,"",NA,0.560259580997808,"k",NA,11,"inlab","MacIntel",NA,NA,NA,NA
"313",47150,1,0,10,1010,"repeat","letter","lettRpt","noRew","star",132,"W",4,"","",NA,NA,"",NA,0.811481156997615,"k",NA,12,"inlab","MacIntel",NA,NA,NA,NA
"314",47150,1,0,0,1010,"repeat","letter","lettRpt","noRew","circle",125,"U",4,"","",NA,NA,"",NA,0.638385304999247,"k",NA,13,"inlab","MacIntel",NA,NA,NA,NA
"315",47150,1,0,0,1010,"repeat","letter","lettRpt","noRew","circle",139,"H",4,"","",NA,NA,"",NA,0.591427598999871,"j",NA,14,"inlab","MacIntel",NA,NA,NA,NA
"316",47150,0,0,0,1010,"repeat","letter",NA,"noRew","star",146,"F",4,"","",NA,NA,"",NA,0.40168576999713,"k",NA,15,"inlab","MacIntel",NA,NA,NA,NA
"317",47150,1,1,1,1011,"repeat","letter","lettRpt","noRew","star",181,"B",4,"","",NA,NA,"",NA,0.540132794994861,"j",NA,16,"inlab","MacIntel",NA,NA,NA,NA
"318",47150,1,0,10,1021,"repeat","letter","lettRpt","noRew","circle",132,"U",4,"","",NA,NA,"",NA,0.576735352005926,"k",NA,17,"inlab","MacIntel",NA,NA,NA,NA
"319",47150,1,0,0,1021,"repeat","letter","lettRpt","noRew","circle",125,"W",4,"","",NA,NA,"",NA,0.668603004996839,"k",NA,18,"inlab","MacIntel",NA,NA,NA,NA
"320",47150,1,0,1,1022,"repeat","letter","lettRpt","noRew","star",146,"D",4,"","",NA,NA,"",NA,0.451464445999591,"j",NA,19,"inlab","MacIntel",NA,NA,NA,NA
"321",47150,1,0,1,1023,"repeat","letter","lettRpt","noRew","star",160,"S",4,"","",NA,NA,"",NA,0.426569474002463,"k",NA,20,"inlab","MacIntel",NA,NA,NA,NA
"322",47150,1,0,10,1033,"repeat","letter","lettRpt","noRew","circle",139,"F",4,"","",NA,NA,"",NA,0.524792892996629,"j",NA,21,"inlab","MacIntel",NA,NA,NA,NA
"323",47150,1,0,10,1043,"repeat","letter","lettRpt","noRew","circle",167,"H",4,"","",NA,NA,"",NA,0.523330153999268,"j",NA,22,"inlab","MacIntel",NA,NA,NA,NA
"324",47150,1,0,1,1044,"repeat","letter","lettRpt","noRew","star",174,"Y",4,"","",NA,NA,"",NA,0.623906441003783,"k",NA,23,"inlab","MacIntel",NA,NA,NA,NA
"325",47150,1,0,0,1044,"repeat","letter","lettRpt","noRew","circle",167,"H",4,"","",NA,NA,"",NA,0.706643429999531,"j",NA,24,"inlab","MacIntel",NA,NA,NA,NA
"326",47150,1,0,10,1054,"repeat","letter","lettRpt","noRew","star",146,"W",4,"","",NA,NA,"",NA,0.623590830000467,"k",NA,25,"inlab","MacIntel",NA,NA,NA,NA
"327",47150,1,0,0,1054,"repeat","letter","lettRpt","noRew","circle",160,"D",4,"","",NA,NA,"",NA,0.961618594003085,"j",NA,26,"inlab","MacIntel",NA,NA,NA,NA
"328",47150,1,0,1,1055,"repeat","letter","lettRpt","noRew","star",132,"F",4,"","",NA,NA,"",NA,1.01242565600114,"j",NA,27,"inlab","MacIntel",NA,NA,NA,NA
"329",47150,1,0,0,1055,"repeat","letter","lettRpt","noRew","circle",125,"S",4,"","",NA,NA,"",NA,0.902166430998477,"k",NA,28,"inlab","MacIntel",NA,NA,NA,NA
"330",47150,1,0,1,1056,"repeat","letter","lettRpt","noRew","star",174,"U",4,"","",NA,NA,"",NA,0.949887850001687,"k",NA,29,"inlab","MacIntel",NA,NA,NA,NA
"331",47150,1,0,10,1066,"repeat","letter","lettRpt","noRew","star",181,"B",4,"","",NA,NA,"",NA,0.520125739996729,"j",NA,30,"inlab","MacIntel",NA,NA,NA,NA
"332",47150,1,0,0,1066,"repeat","letter","lettRpt","noRew","circle",139,"Y",4,"","",NA,NA,"",NA,0.82336803200451,"k",NA,31,"inlab","MacIntel",NA,NA,NA,NA
"333",47150,1,0,0,1066,"repeat","letter","lettRpt","noRew","hexagon",132,"D",5,"","",NA,NA,"",NA,0.795836885998142,"j",NA,0,"inlab","MacIntel",NA,NA,NA,NA
"334",47150,1,0,1,1067,"repeat","letter","lettRpt","noRew","triangle",125,"B",5,"","",NA,NA,"",NA,0.591405293002026,"j",NA,1,"inlab","MacIntel",NA,NA,NA,NA
"335",47150,1,0,1,1068,"repeat","letter","lettRpt","noRew","triangle",181,"H",5,"","",NA,NA,"",NA,0.601303715993708,"j",NA,2,"inlab","MacIntel",NA,NA,NA,NA
"336",47150,0,0,0,1068,"repeat","letter",NA,"noRew","hexagon",167,"S",5,"","",NA,NA,"",NA,0.66791757199826,"j",NA,3,"inlab","MacIntel",NA,NA,NA,NA
"337",47150,0,1,0,1068,"repeat","letter",NA,"noRew","hexagon",160,"Y",5,"","",NA,NA,"",NA,0.938412802999665,"j",NA,4,"inlab","MacIntel",NA,NA,NA,NA
"338",47150,1,1,1,1069,"repeat","letter","lettRpt","noRew","triangle",174,"W",5,"","",NA,NA,"",NA,0.701908076996915,"k",NA,5,"inlab","MacIntel",NA,NA,NA,NA
"339",47150,1,0,1,1070,"repeat","letter","lettRpt","noRew","triangle",139,"U",5,"","",NA,NA,"",NA,0.811064995999914,"k",NA,6,"inlab","MacIntel",NA,NA,NA,NA
"340",47150,1,0,0,1070,"repeat","letter","lettRpt","noRew","hexagon",146,"F",5,"","",NA,NA,"",NA,0.77404735100572,"j",NA,7,"inlab","MacIntel",NA,NA,NA,NA
"341",47150,1,0,0,1070,"repeat","letter","lettRpt","noRew","hexagon",132,"D",5,"","",NA,NA,"",NA,0.713815849994717,"j",NA,8,"inlab","MacIntel",NA,NA,NA,NA
"342",47150,1,0,10,1080,"repeat","letter","lettRpt","noRew","triangle",125,"B",5,"","",NA,NA,"",NA,0.448161029999028,"j",NA,9,"inlab","MacIntel",NA,NA,NA,NA
"343",47150,1,0,1,1081,"repeat","letter","lettRpt","noRew","triangle",181,"H",5,"","",NA,NA,"",NA,0.480873331005569,"j",NA,10,"inlab","MacIntel",NA,NA,NA,NA
"344",47150,1,0,10,1091,"repeat","letter","lettRpt","noRew","hexagon",167,"S",5,"","",NA,NA,"",NA,0.568495036997774,"k",NA,11,"inlab","MacIntel",NA,NA,NA,NA
"345",47150,1,0,1,1092,"repeat","letter","lettRpt","noRew","triangle",160,"Y",5,"","",NA,NA,"",NA,0.635187788997428,"k",NA,12,"inlab","MacIntel",NA,NA,NA,NA
"346",47150,0,0,0,1092,"repeat","letter",NA,"noRew","hexagon",174,"W",5,"","",NA,NA,"",NA,0.626569041000039,"j",NA,13,"inlab","MacIntel",NA,NA,NA,NA
"347",47150,1,1,10,1102,"repeat","letter","lettRpt","noRew","triangle",139,"U",5,"","",NA,NA,"",NA,1.07621405799728,"k",NA,14,"inlab","MacIntel",NA,NA,NA,NA
"348",47150,1,0,0,1102,"repeat","letter","lettRpt","noRew","hexagon",146,"F",5,"","",NA,NA,"",NA,0.971318358002463,"j",NA,15,"inlab","MacIntel",NA,NA,NA,NA
"349",47150,1,0,10,1112,"repeat","letter","lettRpt","noRew","triangle",167,"U",5,"","",NA,NA,"",NA,0.886485920003906,"k",NA,16,"inlab","MacIntel",NA,NA,NA,NA
"350",47150,1,0,0,1112,"repeat","letter","lettRpt","noRew","hexagon",139,"W",5,"","",NA,NA,"",NA,0.89342065800156,"k",NA,17,"inlab","MacIntel",NA,NA,NA,NA
"351",47150,1,0,1,1113,"repeat","letter","lettRpt","noRew","triangle",132,"D",5,"","",NA,NA,"",NA,0.572431574997609,"j",NA,18,"inlab","MacIntel",NA,NA,NA,NA
"352",47150,1,0,10,1123,"repeat","letter","lettRpt","noRew","hexagon",174,"Y",5,"","",NA,NA,"",NA,0.575171794000198,"k",NA,19,"inlab","MacIntel",NA,NA,NA,NA
"353",47150,1,0,10,1133,"repeat","letter","lettRpt","noRew","hexagon",125,"B",5,"","",NA,NA,"",NA,0.500096204996225,"j",NA,20,"inlab","MacIntel",NA,NA,NA,NA
"354",47150,1,0,1,1134,"repeat","letter","lettRpt","noRew","triangle",160,"F",5,"","",NA,NA,"",NA,0.777571502003411,"j",NA,21,"inlab","MacIntel",NA,NA,NA,NA
"355",47150,1,0,1,1135,"repeat","letter","lettRpt","noRew","triangle",181,"H",5,"","",NA,NA,"",NA,0.566454909996537,"j",NA,22,"inlab","MacIntel",NA,NA,NA,NA
"356",47150,1,0,0,1135,"repeat","letter","lettRpt","noRew","hexagon",146,"S",5,"","",NA,NA,"",NA,0.753454304998741,"k",NA,23,"inlab","MacIntel",NA,NA,NA,NA
"357",47150,1,0,10,1145,"repeat","letter","lettRpt","noRew","hexagon",160,"D",5,"","",NA,NA,"",NA,0.493404496999574,"j",NA,24,"inlab","MacIntel",NA,NA,NA,NA
"358",47150,1,0,1,1146,"repeat","letter","lettRpt","noRew","triangle",125,"S",5,"","",NA,NA,"",NA,0.659877369995229,"k",NA,25,"inlab","MacIntel",NA,NA,NA,NA
"359",47150,1,0,0,1146,"repeat","letter","lettRpt","noRew","hexagon",181,"W",5,"","",NA,NA,"",NA,0.723820093997347,"k",NA,26,"inlab","MacIntel",NA,NA,NA,NA
"360",47150,1,0,10,1156,"repeat","letter","lettRpt","noRew","triangle",174,"H",5,"","",NA,NA,"",NA,0.720803045995126,"j",NA,27,"inlab","MacIntel",NA,NA,NA,NA
"361",47150,1,0,0,1156,"repeat","letter","lettRpt","noRew","hexagon",139,"U",5,"","",NA,NA,"",NA,0.663120037999761,"k",NA,28,"inlab","MacIntel",NA,NA,NA,NA
"362",47150,1,0,1,1157,"repeat","letter","lettRpt","noRew","triangle",167,"Y",5,"","",NA,NA,"",NA,0.670603987993672,"k",NA,29,"inlab","MacIntel",NA,NA,NA,NA
"363",47150,1,0,1,1158,"repeat","letter","lettRpt","noRew","triangle",146,"F",5,"","",NA,NA,"",NA,0.526717760993051,"j",NA,30,"inlab","MacIntel",NA,NA,NA,NA
"364",47150,1,0,0,1158,"repeat","letter","lettRpt","noRew","hexagon",132,"B",5,"","",NA,NA,"",NA,0.635810767998919,"j",NA,31,"inlab","MacIntel",NA,NA,NA,NA
