"","participant","acc","E1","points_trial","points_cumul","alt","task","condition","rewCond","curr_shape","curr_topStim","curr_bottStim","blockNum","LShape_ID","RShape_ID","trainBlock","training.thisN","training_resp.keys","training_resp.rt","target_resp.rt","target_resp.keys","trials_norew.thisRepN","trials_rew.thisRepN","platform","OS","browser","xResolution","yResolution","rewExpect"
"1",73676,NA,NA,1,1,"","","training","","",NA,"",NA,"hexagon","circle",0,0,"l",1.36864739300654,NA,"",NA,NA,"inlab","MacIntel",NA,NA,NA,NA
"2",73676,NA,NA,10,11,"","","training","","",NA,"",NA,"hexagon","triangle",0,1,"a",1.82797843000299,NA,"",NA,NA,"inlab","MacIntel",NA,NA,NA,NA
"3",73676,NA,NA,10,21,"","","training","","",NA,"",NA,"circle","hexagon",0,2,"l",1.25299958500545,NA,"",NA,NA,"inlab","MacIntel",NA,NA,NA,NA
"4",73676,NA,NA,1,22,"","","training","","",NA,"",NA,"star","triangle",0,3,"a",1.79927516200405,NA,"",NA,NA,"inlab","MacIntel",NA,NA,NA,NA
"5",73676,NA,NA,10,32,"","","training","","",NA,"",NA,"hexagon","star",0,4,"a",1.3853638760047,NA,"",NA,NA,"inlab","MacIntel",NA,NA,NA,NA
"6",73676,NA,NA,10,42,"","","training","","",NA,"",NA,"star","circle",0,5,"a",1.46084015400265,NA,"",NA,NA,"inlab","MacIntel",NA,NA,NA,NA
"7",73676,NA,NA,1,43,"","","training","","",NA,"",NA,"star","hexagon",0,6,"a",0.750745605000702,NA,"",NA,NA,"inlab","MacIntel",NA,NA,NA,NA
"8",73676,NA,NA,10,53,"","","training","","",NA,"",NA,"triangle","circle",0,7,"a",1.30080723000719,NA,"",NA,NA,"inlab","MacIntel",NA,NA,NA,NA
"9",73676,NA,NA,10,63,"","","training","","",NA,"",NA,"circle","triangle",0,8,"l",0.835273995005991,NA,"",NA,NA,"inlab","MacIntel",NA,NA,NA,NA
"10",73676,NA,NA,10,73,"","","training","","",NA,"",NA,"circle","star",0,9,"l",1.19127393500094,NA,"",NA,NA,"inlab","MacIntel",NA,NA,NA,NA
"11",73676,NA,NA,10,83,"","","training","","",NA,"",NA,"triangle","hexagon",0,10,"l",1.03452310300054,NA,"",NA,NA,"inlab","MacIntel",NA,NA,NA,NA
"12",73676,NA,NA,10,93,"","","training","","",NA,"",NA,"triangle","star",0,11,"l",1.01213365700096,NA,"",NA,NA,"inlab","MacIntel",NA,NA,NA,NA
"13",73676,NA,NA,1,94,"","","training","","",NA,"",NA,"hexagon","star",0,12,"l",0.88006440600293,NA,"",NA,NA,"inlab","MacIntel",NA,NA,NA,NA
"14",73676,NA,NA,10,104,"","","training","","",NA,"",NA,"triangle","star",0,13,"l",0.712915695003176,NA,"",NA,NA,"inlab","MacIntel",NA,NA,NA,NA
"15",73676,NA,NA,1,105,"","","training","","",NA,"",NA,"circle","triangle",0,14,"l",0.936579451998114,NA,"",NA,NA,"inlab","MacIntel",NA,NA,NA,NA
"16",73676,NA,NA,10,115,"","","training","","",NA,"",NA,"circle","star",0,15,"l",0.951335858000675,NA,"",NA,NA,"inlab","MacIntel",NA,NA,NA,NA
"17",73676,NA,NA,10,125,"","","training","","",NA,"",NA,"star","hexagon",0,16,"l",0.612474949004536,NA,"",NA,NA,"inlab","MacIntel",NA,NA,NA,NA
"18",73676,NA,NA,10,135,"","","training","","",NA,"",NA,"star","circle",0,17,"a",0.95234522499959,NA,"",NA,NA,"inlab","MacIntel",NA,NA,NA,NA
"19",73676,NA,NA,10,145,"","","training","","",NA,"",NA,"triangle","hexagon",0,18,"l",0.820975834001729,NA,"",NA,NA,"inlab","MacIntel",NA,NA,NA,NA
"20",73676,NA,NA,1,146,"","","training","","",NA,"",NA,"star","triangle",0,19,"l",1.17627008500131,NA,"",NA,NA,"inlab","MacIntel",NA,NA,NA,NA
"21",73676,NA,NA,10,156,"","","training","","",NA,"",NA,"triangle","circle",0,20,"a",0.924284068001725,NA,"",NA,NA,"inlab","MacIntel",NA,NA,NA,NA
"22",73676,NA,NA,1,157,"","","training","","",NA,"",NA,"hexagon","circle",0,21,"a",1.42754557500302,NA,"",NA,NA,"inlab","MacIntel",NA,NA,NA,NA
"23",73676,NA,NA,1,158,"","","training","","",NA,"",NA,"hexagon","triangle",0,22,"a",0.829844488005619,NA,"",NA,NA,"inlab","MacIntel",NA,NA,NA,NA
"24",73676,NA,NA,10,168,"","","training","","",NA,"",NA,"circle","hexagon",0,23,"l",0.617189595999662,NA,"",NA,NA,"inlab","MacIntel",NA,NA,NA,NA
"25",73676,NA,NA,10,178,"","","training","","",NA,"",NA,"hexagon","circle",0,24,"a",0.717004626996641,NA,"",NA,NA,"inlab","MacIntel",NA,NA,NA,NA
"26",73676,NA,NA,1,179,"","","training","","",NA,"",NA,"triangle","circle",0,25,"a",1.16364373500255,NA,"",NA,NA,"inlab","MacIntel",NA,NA,NA,NA
"27",73676,NA,NA,1,180,"","","training","","",NA,"",NA,"circle","star",0,26,"l",0.84186286899785,NA,"",NA,NA,"inlab","MacIntel",NA,NA,NA,NA
"28",73676,NA,NA,10,190,"","","training","","",NA,"",NA,"triangle","star",0,27,"l",0.602867326000705,NA,"",NA,NA,"inlab","MacIntel",NA,NA,NA,NA
"29",73676,NA,NA,10,200,"","","training","","",NA,"",NA,"hexagon","triangle",0,28,"a",0.743683517001045,NA,"",NA,NA,"inlab","MacIntel",NA,NA,NA,NA
"30",73676,NA,NA,10,210,"","","training","","",NA,"",NA,"star","hexagon",0,29,"l",0.590046536002774,NA,"",NA,NA,"inlab","MacIntel",NA,NA,NA,NA
"31",73676,NA,NA,10,220,"","","training","","",NA,"",NA,"circle","triangle",0,30,"a",0.793554248004511,NA,"",NA,NA,"inlab","MacIntel",NA,NA,NA,NA
"32",73676,NA,NA,10,230,"","","training","","",NA,"",NA,"star","triangle",0,31,"a",0.693758172004891,NA,"",NA,NA,"inlab","MacIntel",NA,NA,NA,NA
"33",73676,NA,NA,10,240,"","","training","","",NA,"",NA,"triangle","hexagon",0,32,"l",0.838480822007114,NA,"",NA,NA,"inlab","MacIntel",NA,NA,NA,NA
"34",73676,NA,NA,1,241,"","","training","","",NA,"",NA,"circle","hexagon",0,33,"a",1.31205133400363,NA,"",NA,NA,"inlab","MacIntel",NA,NA,NA,NA
"35",73676,NA,NA,1,242,"","","training","","",NA,"",NA,"hexagon","star",0,34,"a",1.00036634000571,NA,"",NA,NA,"inlab","MacIntel",NA,NA,NA,NA
"36",73676,NA,NA,1,243,"","","training","","",NA,"",NA,"star","circle",0,35,"l",0.955436893003935,NA,"",NA,NA,"inlab","MacIntel",NA,NA,NA,NA
"37",73676,NA,NA,1,244,"","","training","","",NA,"",NA,"star","circle",1,0,"a",1.03444498400495,NA,"",NA,NA,"inlab","MacIntel",NA,NA,NA,NA
"38",73676,NA,NA,10,254,"","","training","","",NA,"",NA,"triangle","hexagon",1,1,"l",0.682978051001555,NA,"",NA,NA,"inlab","MacIntel",NA,NA,NA,NA
"39",73676,NA,NA,10,264,"","","training","","",NA,"",NA,"star","triangle",1,2,"a",0.835217180007021,NA,"",NA,NA,"inlab","MacIntel",NA,NA,NA,NA
"40",73676,NA,NA,1,265,"","","training","","",NA,"",NA,"circle","star",1,3,"l",0.50979257599829,NA,"",NA,NA,"inlab","MacIntel",NA,NA,NA,NA
"41",73676,NA,NA,1,266,"","","training","","",NA,"",NA,"hexagon","circle",1,4,"l",0.501136987004429,NA,"",NA,NA,"inlab","MacIntel",NA,NA,NA,NA
"42",73676,NA,NA,1,267,"","","training","","",NA,"",NA,"triangle","star",1,5,"a",0.645367964003526,NA,"",NA,NA,"inlab","MacIntel",NA,NA,NA,NA
"43",73676,NA,NA,10,277,"","","training","","",NA,"",NA,"hexagon","star",1,6,"a",1.15207759100304,NA,"",NA,NA,"inlab","MacIntel",NA,NA,NA,NA
"44",73676,NA,NA,1,278,"","","training","","",NA,"",NA,"circle","hexagon",1,7,"a",1.22857619500428,NA,"",NA,NA,"inlab","MacIntel",NA,NA,NA,NA
"45",73676,NA,NA,1,279,"","","training","","",NA,"",NA,"hexagon","triangle",1,8,"a",0.911787298005947,NA,"",NA,NA,"inlab","MacIntel",NA,NA,NA,NA
"46",73676,NA,NA,1,280,"","","training","","",NA,"",NA,"triangle","circle",1,9,"l",0.607683663001808,NA,"",NA,NA,"inlab","MacIntel",NA,NA,NA,NA
"47",73676,NA,NA,10,290,"","","training","","",NA,"",NA,"star","hexagon",1,10,"a",0.722844291005458,NA,"",NA,NA,"inlab","MacIntel",NA,NA,NA,NA
"48",73676,NA,NA,1,291,"","","training","","",NA,"",NA,"circle","triangle",1,11,"a",0.985217238005134,NA,"",NA,NA,"inlab","MacIntel",NA,NA,NA,NA
"49",73676,NA,NA,1,292,"","","training","","",NA,"",NA,"hexagon","star",1,12,"l",0.774476067999785,NA,"",NA,NA,"inlab","MacIntel",NA,NA,NA,NA
"50",73676,NA,NA,10,302,"","","training","","",NA,"",NA,"circle","star",1,13,"a",0.857784949999768,NA,"",NA,NA,"inlab","MacIntel",NA,NA,NA,NA
"51",73676,NA,NA,10,312,"","","training","","",NA,"",NA,"circle","triangle",1,14,"l",0.66839573100151,NA,"",NA,NA,"inlab","MacIntel",NA,NA,NA,NA
"52",73676,NA,NA,1,313,"","","training","","",NA,"",NA,"triangle","star",1,15,"l",0.781624012000975,NA,"",NA,NA,"inlab","MacIntel",NA,NA,NA,NA
"53",73676,NA,NA,10,323,"","","training","","",NA,"",NA,"triangle","circle",1,16,"a",0.450277148003806,NA,"",NA,NA,"inlab","MacIntel",NA,NA,NA,NA
"54",73676,NA,NA,10,333,"","","training","","",NA,"",NA,"star","triangle",1,17,"l",1.21176119799929,NA,"",NA,NA,"inlab","MacIntel",NA,NA,NA,NA
"55",73676,NA,NA,1,334,"","","training","","",NA,"",NA,"triangle","hexagon",1,18,"a",1.14305962600338,NA,"",NA,NA,"inlab","MacIntel",NA,NA,NA,NA
"56",73676,NA,NA,10,344,"","","training","","",NA,"",NA,"hexagon","triangle",1,19,"l",0.829084231008892,NA,"",NA,NA,"inlab","MacIntel",NA,NA,NA,NA
"57",73676,NA,NA,1,345,"","","training","","",NA,"",NA,"star","hexagon",1,20,"a",0.75207684400084,NA,"",NA,NA,"inlab","MacIntel",NA,NA,NA,NA
"58",73676,NA,NA,1,346,"","","training","","",NA,"",NA,"circle","hexagon",1,21,"a",0.30191213600483,NA,"",NA,NA,"inlab","MacIntel",NA,NA,NA,NA
"59",73676,NA,NA,10,356,"","","training","","",NA,"",NA,"star","circle",1,22,"l",0.206307771004504,NA,"",NA,NA,"inlab","MacIntel",NA,NA,NA,NA
"60",73676,NA,NA,10,366,"","","training","","",NA,"",NA,"hexagon","circle",1,23,"a",0.201536639004189,NA,"",NA,NA,"inlab","MacIntel",NA,NA,NA,NA
"61",73676,NA,NA,10,376,"","","training","","",NA,"",NA,"star","hexagon",1,24,"a",0.158342654001899,NA,"",NA,NA,"inlab","MacIntel",NA,NA,NA,NA
"62",73676,NA,NA,1,377,"","","training","","",NA,"",NA,"hexagon","star",1,25,"l",0.0356978530035121,NA,"",NA,NA,"inlab","MacIntel",NA,NA,NA,NA
"63",73676,NA,NA,1,378,"","","training","","",NA,"",NA,"circle","triangle",1,26,"a",0.0790264250026667,NA,"",NA,NA,"inlab","MacIntel",NA,NA,NA,NA
"64",73676,NA,NA,1,379,"","","training","","",NA,"",NA,"circle","hexagon",1,27,"a",0.0339803030001349,NA,"",NA,NA,"inlab","MacIntel",NA,NA,NA,NA
"65",73676,NA,NA,1,380,"","","training","","",NA,"",NA,"triangle","star",1,28,"a",0.125179382004717,NA,"",NA,NA,"inlab","MacIntel",NA,NA,NA,NA
"66",73676,NA,NA,10,390,"","","training","","",NA,"",NA,"circle","star",1,29,"l",0.212132581000333,NA,"",NA,NA,"inlab","MacIntel",NA,NA,NA,NA
"67",73676,NA,NA,1,391,"","","training","","",NA,"",NA,"triangle","circle",1,30,"a",0.159597627003677,NA,"",NA,NA,"inlab","MacIntel",NA,NA,NA,NA
"68",73676,NA,NA,10,401,"","","training","","",NA,"",NA,"star","triangle",1,31,"a",0.0699083420040552,NA,"",NA,NA,"inlab","MacIntel",NA,NA,NA,NA
"69",73676,NA,NA,1,402,"","","training","","",NA,"",NA,"star","circle",1,32,"l",0.0322401850062306,NA,"",NA,NA,"inlab","MacIntel",NA,NA,NA,NA
"70",73676,NA,NA,1,403,"","","training","","",NA,"",NA,"hexagon","triangle",1,33,"l",0.300016458000755,NA,"",NA,NA,"inlab","MacIntel",NA,NA,NA,NA
"71",73676,NA,NA,10,413,"","","training","","",NA,"",NA,"hexagon","circle",1,34,"a",0.0606198950044927,NA,"",NA,NA,"inlab","MacIntel",NA,NA,NA,NA
"72",73676,NA,NA,1,414,"","","training","","",NA,"",NA,"triangle","hexagon",1,35,"a",0.142882013999042,NA,"",NA,NA,"inlab","MacIntel",NA,NA,NA,NA
"73",73676,NA,NA,10,424,"","","training","","",NA,"",NA,"circle","triangle",2,0,"l",0.60852689800231,NA,"",NA,NA,"inlab","MacIntel",NA,NA,NA,NA
"74",73676,NA,NA,10,434,"","","training","","",NA,"",NA,"star","circle",2,1,"a",0.092639030997816,NA,"",NA,NA,"inlab","MacIntel",NA,NA,NA,NA
"75",73676,NA,NA,10,444,"","","training","","",NA,"",NA,"hexagon","triangle",2,2,"a",0.165887351999118,NA,"",NA,NA,"inlab","MacIntel",NA,NA,NA,NA
"76",73676,NA,NA,1,445,"","","training","","",NA,"",NA,"circle","star",2,3,"a",0.0356160470037139,NA,"",NA,NA,"inlab","MacIntel",NA,NA,NA,NA
"77",73676,NA,NA,1,446,"","","training","","",NA,"",NA,"triangle","hexagon",2,4,"a",0.102239081003063,NA,"",NA,NA,"inlab","MacIntel",NA,NA,NA,NA
"78",73676,NA,NA,10,456,"","","training","","",NA,"",NA,"star","hexagon",2,5,"a",0.0628307930019218,NA,"",NA,NA,"inlab","MacIntel",NA,NA,NA,NA
"79",73676,NA,NA,10,466,"","","training","","",NA,"",NA,"hexagon","star",2,6,"a",0.250028333997761,NA,"",NA,NA,"inlab","MacIntel",NA,NA,NA,NA
"80",73676,NA,NA,10,476,"","","training","","",NA,"",NA,"star","triangle",2,7,"a",0.292820967006264,NA,"",NA,NA,"inlab","MacIntel",NA,NA,NA,NA
"81",73676,NA,NA,10,486,"","","training","","",NA,"",NA,"triangle","circle",2,8,"l",0.236384059004195,NA,"",NA,NA,"inlab","MacIntel",NA,NA,NA,NA
"82",73676,NA,NA,1,487,"","","training","","",NA,"",NA,"circle","hexagon",2,9,"a",0.31218844500836,NA,"",NA,NA,"inlab","MacIntel",NA,NA,NA,NA
"83",73676,NA,NA,10,497,"","","training","","",NA,"",NA,"triangle","star",2,10,"l",0.440295443004288,NA,"",NA,NA,"inlab","MacIntel",NA,NA,NA,NA
"84",73676,NA,NA,1,498,"","","training","","",NA,"",NA,"hexagon","circle",2,11,"l",0.0179270990047371,NA,"",NA,NA,"inlab","MacIntel",NA,NA,NA,NA
"85",73676,NA,NA,10,508,"","","training","","",NA,"",NA,"hexagon","circle",2,12,"a",0.270422507004696,NA,"",NA,NA,"inlab","MacIntel",NA,NA,NA,NA
"86",73676,NA,NA,1,509,"","","training","","",NA,"",NA,"circle","triangle",2,13,"l",0.207833682005003,NA,"",NA,NA,"inlab","MacIntel",NA,NA,NA,NA
"87",73676,NA,NA,10,519,"","","training","","",NA,"",NA,"star","hexagon",2,14,"l",0.0357244639963028,NA,"",NA,NA,"inlab","MacIntel",NA,NA,NA,NA
"88",73676,NA,NA,1,520,"","","training","","",NA,"",NA,"circle","hexagon",2,15,"a",0.110549593999167,NA,"",NA,NA,"inlab","MacIntel",NA,NA,NA,NA
"89",73676,NA,NA,10,530,"","","training","","",NA,"",NA,"star","triangle",2,16,"l",0.928280710002582,NA,"",NA,NA,"inlab","MacIntel",NA,NA,NA,NA
"90",73676,NA,NA,10,540,"","","training","","",NA,"",NA,"triangle","hexagon",2,17,"l",0.27824058799888,NA,"",NA,NA,"inlab","MacIntel",NA,NA,NA,NA
"91",73676,NA,NA,10,550,"","","training","","",NA,"",NA,"triangle","circle",2,18,"l",0.264256987997214,NA,"",NA,NA,"inlab","MacIntel",NA,NA,NA,NA
"92",73676,NA,NA,1,551,"","","training","","",NA,"",NA,"circle","star",2,19,"a",0.233798710003612,NA,"",NA,NA,"inlab","MacIntel",NA,NA,NA,NA
"93",73676,NA,NA,1,552,"","","training","","",NA,"",NA,"star","circle",2,20,"a",0.14067264800542,NA,"",NA,NA,"inlab","MacIntel",NA,NA,NA,NA
"94",73676,NA,NA,10,562,"","","training","","",NA,"",NA,"hexagon","triangle",2,21,"a",0.244529076000617,NA,"",NA,NA,"inlab","MacIntel",NA,NA,NA,NA
"95",73676,NA,NA,10,572,"","","training","","",NA,"",NA,"hexagon","star",2,22,"a",0.232251076005923,NA,"",NA,NA,"inlab","MacIntel",NA,NA,NA,NA
"96",73676,NA,NA,10,582,"","","training","","",NA,"",NA,"triangle","star",2,23,"a",0.242922546000045,NA,"",NA,NA,"inlab","MacIntel",NA,NA,NA,NA
"97",73676,NA,NA,10,592,"","","training","","",NA,"",NA,"triangle","star",2,24,"a",0.245542205004313,NA,"",NA,NA,"inlab","MacIntel",NA,NA,NA,NA
"98",73676,NA,NA,1,593,"","","training","","",NA,"",NA,"star","triangle",2,25,"l",0.21665700700396,NA,"",NA,NA,"inlab","MacIntel",NA,NA,NA,NA
"99",73676,NA,NA,1,594,"","","training","","",NA,"",NA,"hexagon","triangle",2,26,"l",0.165163673998904,NA,"",NA,NA,"inlab","MacIntel",NA,NA,NA,NA
"100",73676,NA,NA,1,595,"","","training","","",NA,"",NA,"circle","star",2,27,"a",0.37894038399827,NA,"",NA,NA,"inlab","MacIntel",NA,NA,NA,NA
"101",73676,NA,NA,1,596,"","","training","","",NA,"",NA,"circle","triangle",2,28,"a",0.3283495220021,NA,"",NA,NA,"inlab","MacIntel",NA,NA,NA,NA
"102",73676,NA,NA,10,606,"","","training","","",NA,"",NA,"circle","hexagon",2,29,"l",0.35886624900013,NA,"",NA,NA,"inlab","MacIntel",NA,NA,NA,NA
"103",73676,NA,NA,10,616,"","","training","","",NA,"",NA,"star","hexagon",2,30,"l",0.277769929998612,NA,"",NA,NA,"inlab","MacIntel",NA,NA,NA,NA
"104",73676,NA,NA,10,626,"","","training","","",NA,"",NA,"hexagon","circle",2,31,"l",0.375311009003781,NA,"",NA,NA,"inlab","MacIntel",NA,NA,NA,NA
"105",73676,NA,NA,1,627,"","","training","","",NA,"",NA,"hexagon","star",2,32,"a",0.427915569009201,NA,"",NA,NA,"inlab","MacIntel",NA,NA,NA,NA
"106",73676,NA,NA,1,628,"","","training","","",NA,"",NA,"star","circle",2,33,"a",0.319949905002431,NA,"",NA,NA,"inlab","MacIntel",NA,NA,NA,NA
"107",73676,NA,NA,10,638,"","","training","","",NA,"",NA,"triangle","hexagon",2,34,"l",0.31836204600404,NA,"",NA,NA,"inlab","MacIntel",NA,NA,NA,NA
"108",73676,NA,NA,1,639,"","","training","","",NA,"",NA,"triangle","circle",2,35,"l",0.263412759006314,NA,"",NA,NA,"inlab","MacIntel",NA,NA,NA,NA
"109",73676,1,0,0,639,"repeat","number","numRpt","noRew","circle",160,"U",0,"","",NA,NA,"",NA,2.18221808700036,"f",0,NA,"inlab","MacIntel",NA,NA,NA,NA
"110",73676,1,0,0,639,"repeat","number","numRpt","noRew","triangle",125,"D",0,"","",NA,NA,"",NA,0.832752371003153,"d",1,NA,"inlab","MacIntel",NA,NA,NA,NA
"111",73676,1,0,0,639,"repeat","number","numRpt","noRew","star",139,"W",0,"","",NA,NA,"",NA,0.697271224002179,"d",2,NA,"inlab","MacIntel",NA,NA,NA,NA
"112",73676,1,0,0,639,"switch","letter","lettSwt","noRew","hexagon",146,"Y",0,"","",NA,NA,"",NA,0.744251497999358,"k",3,NA,"inlab","MacIntel",NA,NA,NA,NA
"113",73676,1,0,0,639,"repeat","letter","lettRpt","noRew","triangle",160,"U",0,"","",NA,NA,"",NA,0.773181406999356,"k",4,NA,"inlab","MacIntel",NA,NA,NA,NA
"114",73676,1,0,0,639,"repeat","letter","lettRpt","noRew","hexagon",125,"D",0,"","",NA,NA,"",NA,1.14462010699935,"j",5,NA,"inlab","MacIntel",NA,NA,NA,NA
"115",73676,1,0,0,639,"repeat","letter","lettRpt","noRew","star",139,"W",0,"","",NA,NA,"",NA,0.908808505002526,"k",6,NA,"inlab","MacIntel",NA,NA,NA,NA
"116",73676,1,0,0,639,"switch","number","numSwt","noRew","triangle",146,"Y",0,"","",NA,NA,"",NA,1.71416338200652,"d",7,NA,"inlab","MacIntel",NA,NA,NA,NA
"117",73676,1,0,0,639,"repeat","number","numRpt","noRew","circle",174,"U",0,"","",NA,NA,"",NA,1.09531327800505,"f",8,NA,"inlab","MacIntel",NA,NA,NA,NA
"118",73676,-1,0,0,639,"switch","no_choice",NA,"noRew","star",160,"B",0,"","",NA,NA,"",NA,NA,"None",9,NA,"inlab","MacIntel",NA,NA,NA,NA
"119",73676,1,0,0,639,"switch","number","numSwt","noRew","circle",132,"W",0,"","",NA,NA,"",NA,0.798486644998775,"d",10,NA,"inlab","MacIntel",NA,NA,NA,NA
"120",73676,1,0,0,639,"repeat","number","numRpt","noRew","triangle",139,"F",0,"","",NA,NA,"",NA,0.544734044000506,"d",11,NA,"inlab","MacIntel",NA,NA,NA,NA
"121",73676,1,0,0,639,"repeat","number","numRpt","noRew","star",139,"B",0,"","",NA,NA,"",NA,0.493803326004127,"d",12,NA,"inlab","MacIntel",NA,NA,NA,NA
"122",73676,1,0,0,639,"repeat","number","numRpt","noRew","circle",181,"H",0,"","",NA,NA,"",NA,0.676494591003575,"f",13,NA,"inlab","MacIntel",NA,NA,NA,NA
"123",73676,1,0,0,639,"repeat","number","numRpt","noRew","triangle",174,"D",0,"","",NA,NA,"",NA,1.3875985390041,"f",14,NA,"inlab","MacIntel",NA,NA,NA,NA
"124",73676,1,0,0,639,"repeat","number","numRpt","noRew","hexagon",125,"Y",0,"","",NA,NA,"",NA,0.622844930003339,"d",15,NA,"inlab","MacIntel",NA,NA,NA,NA
"125",73676,1,0,0,639,"repeat","number","numRpt","noRew","hexagon",139,"B",0,"","",NA,NA,"",NA,0.800683280001977,"d",16,NA,"inlab","MacIntel",NA,NA,NA,NA
"126",73676,1,0,0,639,"repeat","number","numRpt","noRew","triangle",167,"U",0,"","",NA,NA,"",NA,0.785786640000879,"f",17,NA,"inlab","MacIntel",NA,NA,NA,NA
"127",73676,0,0,0,639,"repeat","number",NA,"noRew","circle",174,"W",0,"","",NA,NA,"",NA,0.757217429003504,"d",18,NA,"inlab","MacIntel",NA,NA,NA,NA
"128",73676,1,1,0,639,"repeat","number","numRpt","noRew","hexagon",125,"H",0,"","",NA,NA,"",NA,0.784974620997673,"d",19,NA,"inlab","MacIntel",NA,NA,NA,NA
"129",73676,1,0,0,639,"repeat","number","numRpt","noRew","triangle",139,"Y",0,"","",NA,NA,"",NA,0.740481531000114,"d",20,NA,"inlab","MacIntel",NA,NA,NA,NA
"130",73676,1,0,0,639,"repeat","number","numRpt","noRew","star",160,"B",0,"","",NA,NA,"",NA,0.857151819007413,"f",21,NA,"inlab","MacIntel",NA,NA,NA,NA
"131",73676,0,0,0,639,"repeat","number",NA,"noRew","circle",174,"H",0,"","",NA,NA,"",NA,0.769185497003491,"d",22,NA,"inlab","MacIntel",NA,NA,NA,NA
"132",73676,1,1,0,639,"switch","letter","lettSwt","noRew","triangle",167,"W",0,"","",NA,NA,"",NA,1.10034218100191,"k",23,NA,"inlab","MacIntel",NA,NA,NA,NA
"133",73676,1,0,0,639,"repeat","letter","lettRpt","noRew","star",174,"F",0,"","",NA,NA,"",NA,0.754524941003183,"j",24,NA,"inlab","MacIntel",NA,NA,NA,NA
"134",73676,1,0,0,639,"repeat","letter","lettRpt","noRew","circle",132,"Y",0,"","",NA,NA,"",NA,0.886402422998799,"k",25,NA,"inlab","MacIntel",NA,NA,NA,NA
"135",73676,1,0,0,639,"repeat","letter","lettRpt","noRew","circle",181,"D",0,"","",NA,NA,"",NA,0.724981678009499,"j",26,NA,"inlab","MacIntel",NA,NA,NA,NA
"136",73676,1,0,0,639,"repeat","letter","lettRpt","noRew","star",160,"U",0,"","",NA,NA,"",NA,0.634560459002387,"k",27,NA,"inlab","MacIntel",NA,NA,NA,NA
"137",73676,1,0,0,639,"repeat","letter","lettRpt","noRew","circle",125,"S",0,"","",NA,NA,"",NA,0.755856085008418,"k",28,NA,"inlab","MacIntel",NA,NA,NA,NA
"138",73676,1,0,0,639,"repeat","letter","lettRpt","noRew","triangle",160,"U",0,"","",NA,NA,"",NA,0.719765630004986,"k",29,NA,"inlab","MacIntel",NA,NA,NA,NA
"139",73676,1,0,0,639,"repeat","letter","lettRpt","noRew","triangle",181,"F",0,"","",NA,NA,"",NA,0.86047230099939,"j",30,NA,"inlab","MacIntel",NA,NA,NA,NA
"140",73676,1,0,0,639,"repeat","letter","lettRpt","noRew","star",132,"W",0,"","",NA,NA,"",NA,0.773052144002577,"k",31,NA,"inlab","MacIntel",NA,NA,NA,NA
"141",73676,1,0,0,639,"repeat","letter","lettRpt","noRew","star",167,"F",0,"","",NA,NA,"",NA,1.12032095400355,"j",32,NA,"inlab","MacIntel",NA,NA,NA,NA
"142",73676,1,0,0,639,"repeat","letter","lettRpt","noRew","hexagon",174,"H",0,"","",NA,NA,"",NA,0.757483881003282,"j",33,NA,"inlab","MacIntel",NA,NA,NA,NA
"143",73676,1,0,0,639,"repeat","letter","lettRpt","noRew","hexagon",181,"S",0,"","",NA,NA,"",NA,0.642058545003238,"k",34,NA,"inlab","MacIntel",NA,NA,NA,NA
"144",73676,1,0,0,639,"repeat","letter","lettRpt","noRew","triangle",139,"W",0,"","",NA,NA,"",NA,0.930681119003566,"k",35,NA,"inlab","MacIntel",NA,NA,NA,NA
"145",73676,1,0,0,639,"repeat","letter","lettRpt","noRew","triangle",125,"S",0,"","",NA,NA,"",NA,0.759911601002386,"k",36,NA,"inlab","MacIntel",NA,NA,NA,NA
"146",73676,1,0,0,639,"repeat","letter","lettRpt","noRew","circle",146,"U",0,"","",NA,NA,"",NA,0.635078284001793,"k",37,NA,"inlab","MacIntel",NA,NA,NA,NA
"147",73676,1,0,0,639,"repeat","letter","lettRpt","noRew","triangle",167,"W",0,"","",NA,NA,"",NA,0.676756228000158,"k",38,NA,"inlab","MacIntel",NA,NA,NA,NA
"148",73676,1,0,0,639,"repeat","letter","lettRpt","noRew","star",132,"H",0,"","",NA,NA,"",NA,1.25191096599883,"j",39,NA,"inlab","MacIntel",NA,NA,NA,NA
"149",73676,1,0,0,639,"repeat","letter","lettRpt","noRew","circle",125,"S",0,"","",NA,NA,"",NA,0.658626749005634,"k",40,NA,"inlab","MacIntel",NA,NA,NA,NA
"150",73676,1,0,0,639,"repeat","letter","lettRpt","noRew","star",167,"U",0,"","",NA,NA,"",NA,0.580316061008489,"k",41,NA,"inlab","MacIntel",NA,NA,NA,NA
"151",73676,1,0,0,639,"repeat","letter","lettRpt","noRew","star",139,"Y",0,"","",NA,NA,"",NA,0.687690669001313,"k",42,NA,"inlab","MacIntel",NA,NA,NA,NA
"152",73676,1,0,0,639,"repeat","letter","lettRpt","noRew","triangle",146,"D",0,"","",NA,NA,"",NA,0.6301496590022,"j",43,NA,"inlab","MacIntel",NA,NA,NA,NA
"153",73676,1,0,0,639,"repeat","letter","lettRpt","noRew","circle",125,"D",0,"","",NA,NA,"",NA,0.616478563002602,"j",44,NA,"inlab","MacIntel",NA,NA,NA,NA
"154",73676,1,0,0,639,"repeat","letter","lettRpt","noRew","hexagon",139,"H",0,"","",NA,NA,"",NA,0.961896617009188,"j",45,NA,"inlab","MacIntel",NA,NA,NA,NA
"155",73676,1,0,0,639,"repeat","letter","lettRpt","noRew","star",146,"Y",0,"","",NA,NA,"",NA,0.589584537003248,"k",46,NA,"inlab","MacIntel",NA,NA,NA,NA
"156",73676,1,0,0,639,"repeat","letter","lettRpt","noRew","circle",167,"U",0,"","",NA,NA,"",NA,0.64891438199993,"k",47,NA,"inlab","MacIntel",NA,NA,NA,NA
"157",73676,1,0,0,639,"repeat","letter","lettRpt","noRew","circle",146,"F",0,"","",NA,NA,"",NA,0.825444726004207,"j",48,NA,"inlab","MacIntel",NA,NA,NA,NA
"158",73676,1,0,0,639,"switch","number","numSwt","noRew","hexagon",132,"S",0,"","",NA,NA,"",NA,0.803158452006755,"d",49,NA,"inlab","MacIntel",NA,NA,NA,NA
"159",73676,1,0,0,639,"repeat","number","numRpt","noRew","circle",174,"Y",0,"","",NA,NA,"",NA,0.805036740996002,"f",50,NA,"inlab","MacIntel",NA,NA,NA,NA
"160",73676,1,0,0,639,"repeat","number","numRpt","noRew","hexagon",167,"B",0,"","",NA,NA,"",NA,0.7834597330002,"f",51,NA,"inlab","MacIntel",NA,NA,NA,NA
"161",73676,1,0,0,639,"repeat","number","numRpt","noRew","hexagon",160,"S",0,"","",NA,NA,"",NA,0.866652972996235,"f",52,NA,"inlab","MacIntel",NA,NA,NA,NA
"162",73676,1,0,0,639,"repeat","number","numRpt","noRew","circle",146,"W",0,"","",NA,NA,"",NA,0.786491995000688,"d",53,NA,"inlab","MacIntel",NA,NA,NA,NA
"163",73676,1,0,0,639,"repeat","number","numRpt","noRew","hexagon",132,"D",0,"","",NA,NA,"",NA,0.708846358000301,"d",54,NA,"inlab","MacIntel",NA,NA,NA,NA
"164",73676,1,0,0,639,"repeat","number","numRpt","noRew","circle",167,"U",0,"","",NA,NA,"",NA,0.723746654002753,"f",55,NA,"inlab","MacIntel",NA,NA,NA,NA
"165",73676,1,0,0,639,"repeat","number","numRpt","noRew","hexagon",181,"F",0,"","",NA,NA,"",NA,1.08853419400111,"f",56,NA,"inlab","MacIntel",NA,NA,NA,NA
"166",73676,1,0,0,639,"repeat","number","numRpt","noRew","triangle",139,"Y",0,"","",NA,NA,"",NA,0.775482131997705,"d",57,NA,"inlab","MacIntel",NA,NA,NA,NA
"167",73676,1,0,0,639,"repeat","number","numRpt","noRew","hexagon",160,"H",0,"","",NA,NA,"",NA,0.801706628008105,"f",58,NA,"inlab","MacIntel",NA,NA,NA,NA
"168",73676,1,0,0,639,"repeat","number","numRpt","noRew","circle",167,"D",0,"","",NA,NA,"",NA,0.660517124997568,"f",59,NA,"inlab","MacIntel",NA,NA,NA,NA
"169",73676,1,0,0,639,"repeat","number","numRpt","noRew","triangle",125,"B",0,"","",NA,NA,"",NA,0.619941197001026,"d",60,NA,"inlab","MacIntel",NA,NA,NA,NA
"170",73676,1,0,0,639,"repeat","number","numRpt","noRew","star",181,"U",0,"","",NA,NA,"",NA,0.733997627998178,"f",61,NA,"inlab","MacIntel",NA,NA,NA,NA
"171",73676,1,0,0,639,"repeat","number","numRpt","noRew","hexagon",167,"F",0,"","",NA,NA,"",NA,1.29153923400736,"f",62,NA,"inlab","MacIntel",NA,NA,NA,NA
"172",73676,1,0,0,639,"repeat","number","numRpt","noRew","star",132,"H",0,"","",NA,NA,"",NA,0.730609988007927,"d",63,NA,"inlab","MacIntel",NA,NA,NA,NA
"173",73676,1,0,1,640,"switch","letter","lettSwt","noRew","star",132,"F",0,"","",NA,NA,"",NA,0.639715987003001,"j",NA,0,"inlab","MacIntel",NA,NA,NA,NA
"174",73676,1,0,1,641,"repeat","letter","lettRpt","noRew","triangle",125,"B",0,"","",NA,NA,"",NA,0.703913756005932,"j",NA,1,"inlab","MacIntel",NA,NA,NA,NA
"175",73676,1,0,10,651,"switch","number","numSwt","noRew","triangle",181,"H",0,"","",NA,NA,"",NA,0.694548159997794,"f",NA,2,"inlab","MacIntel",NA,NA,NA,NA
"176",73676,1,0,10,661,"repeat","number","numRpt","noRew","star",160,"U",0,"","",NA,NA,"",NA,0.573929901001975,"f",NA,3,"inlab","MacIntel",NA,NA,NA,NA
"177",73676,0,0,0,661,"repeat","number",NA,"noRew","triangle",146,"Y",0,"","",NA,NA,"",NA,1.12046715099859,"f",NA,4,"inlab","MacIntel",NA,NA,NA,NA
"178",73676,1,1,1,662,"repeat","number","numRpt","noRew","star",139,"S",0,"","",NA,NA,"",NA,0.693287122005131,"d",NA,5,"inlab","MacIntel",NA,NA,NA,NA
"179",73676,1,0,10,672,"switch","letter","lettSwt","noRew","triangle",174,"D",0,"","",NA,NA,"",NA,0.900598445005016,"j",NA,6,"inlab","MacIntel",NA,NA,NA,NA
"180",73676,1,0,0,672,"repeat","letter","lettRpt","noRew","star",167,"W",0,"","",NA,NA,"",NA,0.883802110001852,"k",NA,7,"inlab","MacIntel",NA,NA,NA,NA
"181",73676,1,0,10,682,"repeat","letter","lettRpt","noRew","star",132,"F",0,"","",NA,NA,"",NA,0.522654513006273,"j",NA,8,"inlab","MacIntel",NA,NA,NA,NA
"182",73676,1,0,1,683,"repeat","letter","lettRpt","noRew","triangle",125,"B",0,"","",NA,NA,"",NA,0.551576417004981,"j",NA,9,"inlab","MacIntel",NA,NA,NA,NA
"183",73676,1,0,10,693,"repeat","letter","lettRpt","noRew","star",181,"H",0,"","",NA,NA,"",NA,0.604455204003898,"j",NA,10,"inlab","MacIntel",NA,NA,NA,NA
"184",73676,1,0,1,694,"repeat","letter","lettRpt","noRew","triangle",160,"U",0,"","",NA,NA,"",NA,0.6301377100026,"k",NA,11,"inlab","MacIntel",NA,NA,NA,NA
"185",73676,1,0,10,704,"repeat","letter","lettRpt","noRew","star",146,"Y",0,"","",NA,NA,"",NA,0.663728918007109,"k",NA,12,"inlab","MacIntel",NA,NA,NA,NA
"186",73676,1,0,10,714,"repeat","letter","lettRpt","noRew","triangle",139,"S",0,"","",NA,NA,"",NA,0.728508812004293,"k",NA,13,"inlab","MacIntel",NA,NA,NA,NA
"187",73676,1,0,10,724,"repeat","letter","lettRpt","noRew","triangle",174,"D",0,"","",NA,NA,"",NA,0.701962910003203,"j",NA,14,"inlab","MacIntel",NA,NA,NA,NA
"188",73676,1,0,0,724,"repeat","letter","lettRpt","noRew","star",167,"W",0,"","",NA,NA,"",NA,0.835587140005373,"k",NA,15,"inlab","MacIntel",NA,NA,NA,NA
"189",73676,0,0,0,724,"repeat","letter",NA,"noRew","triangle",139,"Y",0,"","",NA,NA,"",NA,0.684835936997843,"j",NA,16,"inlab","MacIntel",NA,NA,NA,NA
"190",73676,1,1,0,724,"repeat","letter","lettRpt","noRew","star",181,"S",0,"","",NA,NA,"",NA,1.20261604900588,"k",NA,17,"inlab","MacIntel",NA,NA,NA,NA
"191",73676,1,0,0,724,"repeat","letter","lettRpt","noRew","star",146,"W",0,"","",NA,NA,"",NA,1.51694036099798,"k",NA,18,"inlab","MacIntel",NA,NA,NA,NA
"192",73676,1,0,1,725,"repeat","letter","lettRpt","noRew","triangle",174,"H",0,"","",NA,NA,"",NA,0.561550361002446,"j",NA,19,"inlab","MacIntel",NA,NA,NA,NA
"193",73676,1,0,10,735,"repeat","letter","lettRpt","noRew","star",167,"D",0,"","",NA,NA,"",NA,0.52585865000583,"j",NA,20,"inlab","MacIntel",NA,NA,NA,NA
"194",73676,1,0,1,736,"repeat","letter","lettRpt","noRew","triangle",132,"B",0,"","",NA,NA,"",NA,0.580479028998525,"j",NA,21,"inlab","MacIntel",NA,NA,NA,NA
"195",73676,1,0,0,736,"repeat","letter","lettRpt","noRew","star",160,"F",0,"","",NA,NA,"",NA,0.72820231699734,"j",NA,22,"inlab","MacIntel",NA,NA,NA,NA
"196",73676,1,0,1,737,"repeat","letter","lettRpt","noRew","triangle",125,"U",0,"","",NA,NA,"",NA,0.540799828006129,"k",NA,23,"inlab","MacIntel",NA,NA,NA,NA
"197",73676,1,0,1,738,"repeat","letter","lettRpt","noRew","triangle",167,"H",0,"","",NA,NA,"",NA,0.426389970998571,"j",NA,24,"inlab","MacIntel",NA,NA,NA,NA
"198",73676,1,0,1,739,"repeat","letter","lettRpt","noRew","star",181,"B",0,"","",NA,NA,"",NA,0.610964808001881,"j",NA,25,"inlab","MacIntel",NA,NA,NA,NA
"199",73676,1,0,10,749,"repeat","letter","lettRpt","noRew","star",132,"D",0,"","",NA,NA,"",NA,0.566002580999339,"j",NA,26,"inlab","MacIntel",NA,NA,NA,NA
"200",73676,1,0,1,750,"repeat","letter","lettRpt","noRew","triangle",125,"F",0,"","",NA,NA,"",NA,0.650880917004542,"j",NA,27,"inlab","MacIntel",NA,NA,NA,NA
"201",73676,1,0,10,760,"repeat","letter","lettRpt","noRew","triangle",146,"Y",0,"","",NA,NA,"",NA,0.483493642001122,"k",NA,28,"inlab","MacIntel",NA,NA,NA,NA
"202",73676,0,0,0,760,"repeat","letter",NA,"noRew","star",174,"U",0,"","",NA,NA,"",NA,0.651506462003454,"j",NA,29,"inlab","MacIntel",NA,NA,NA,NA
"203",73676,0,1,0,760,"repeat","letter",NA,"noRew","star",160,"S",0,"","",NA,NA,"",NA,0.731938356999308,"j",NA,30,"inlab","MacIntel",NA,NA,NA,NA
"204",73676,1,1,1,761,"repeat","letter","lettRpt","noRew","triangle",139,"W",0,"","",NA,NA,"",NA,0.544838799003628,"k",NA,31,"inlab","MacIntel",NA,NA,NA,NA
"205",73676,1,0,10,771,"repeat","letter","lettRpt","noRew","circle",174,"W",1,"","",NA,NA,"",NA,0.748532227007672,"k",NA,0,"inlab","MacIntel",NA,NA,NA,NA
"206",73676,1,0,0,771,"repeat","letter","lettRpt","noRew","hexagon",160,"B",1,"","",NA,NA,"",NA,0.68158750400471,"j",NA,1,"inlab","MacIntel",NA,NA,NA,NA
"207",73676,1,0,10,781,"repeat","letter","lettRpt","noRew","hexagon",167,"D",1,"","",NA,NA,"",NA,0.417062205007824,"j",NA,2,"inlab","MacIntel",NA,NA,NA,NA
"208",73676,1,0,10,791,"repeat","letter","lettRpt","noRew","circle",125,"Y",1,"","",NA,NA,"",NA,0.618239368006471,"k",NA,3,"inlab","MacIntel",NA,NA,NA,NA
"209",73676,1,0,1,792,"repeat","letter","lettRpt","noRew","circle",132,"S",1,"","",NA,NA,"",NA,0.57278246700298,"k",NA,4,"inlab","MacIntel",NA,NA,NA,NA
"210",73676,1,0,0,792,"repeat","letter","lettRpt","noRew","hexagon",146,"F",1,"","",NA,NA,"",NA,0.633088886002952,"j",NA,5,"inlab","MacIntel",NA,NA,NA,NA
"211",73676,1,0,0,792,"repeat","letter","lettRpt","noRew","hexagon",181,"U",1,"","",NA,NA,"",NA,0.641544452002563,"k",NA,6,"inlab","MacIntel",NA,NA,NA,NA
"212",73676,0,0,0,792,"repeat","letter",NA,"noRew","circle",139,"H",1,"","",NA,NA,"",NA,0.546982762003609,"k",NA,7,"inlab","MacIntel",NA,NA,NA,NA
"213",73676,1,1,1,793,"repeat","letter","lettRpt","noRew","circle",174,"W",1,"","",NA,NA,"",NA,0.463432754004316,"k",NA,8,"inlab","MacIntel",NA,NA,NA,NA
"214",73676,1,0,10,803,"repeat","letter","lettRpt","noRew","hexagon",160,"B",1,"","",NA,NA,"",NA,0.376264428006834,"j",NA,9,"inlab","MacIntel",NA,NA,NA,NA
"215",73676,1,0,10,813,"repeat","letter","lettRpt","noRew","hexagon",167,"D",1,"","",NA,NA,"",NA,0.483633507006743,"j",NA,10,"inlab","MacIntel",NA,NA,NA,NA
"216",73676,1,0,1,814,"repeat","letter","lettRpt","noRew","circle",125,"Y",1,"","",NA,NA,"",NA,0.419487133003713,"k",NA,11,"inlab","MacIntel",NA,NA,NA,NA
"217",73676,0,0,0,814,"repeat","letter",NA,"noRew","circle",132,"S",1,"","",NA,NA,"",NA,0.437002254999243,"j",NA,12,"inlab","MacIntel",NA,NA,NA,NA
"218",73676,1,1,0,814,"repeat","letter","lettRpt","noRew","hexagon",146,"F",1,"","",NA,NA,"",NA,0.622612920997199,"j",NA,13,"inlab","MacIntel",NA,NA,NA,NA
"219",73676,1,0,1,815,"repeat","letter","lettRpt","noRew","circle",181,"U",1,"","",NA,NA,"",NA,0.567778010001348,"k",NA,14,"inlab","MacIntel",NA,NA,NA,NA
"220",73676,1,0,1,816,"repeat","letter","lettRpt","noRew","hexagon",139,"H",1,"","",NA,NA,"",NA,0.410862987002474,"j",NA,15,"inlab","MacIntel",NA,NA,NA,NA
"221",73676,1,0,10,826,"repeat","letter","lettRpt","noRew","circle",174,"D",1,"","",NA,NA,"",NA,0.557359645004908,"j",NA,16,"inlab","MacIntel",NA,NA,NA,NA
"222",73676,1,0,0,826,"repeat","letter","lettRpt","noRew","hexagon",132,"F",1,"","",NA,NA,"",NA,0.578317546001927,"j",NA,17,"inlab","MacIntel",NA,NA,NA,NA
"223",73676,1,0,1,827,"repeat","letter","lettRpt","noRew","circle",146,"Y",1,"","",NA,NA,"",NA,0.445837792001839,"k",NA,18,"inlab","MacIntel",NA,NA,NA,NA
"224",73676,1,0,0,827,"repeat","letter","lettRpt","noRew","hexagon",125,"U",1,"","",NA,NA,"",NA,0.623400932003278,"k",NA,19,"inlab","MacIntel",NA,NA,NA,NA
"225",73676,0,0,0,827,"repeat","letter",NA,"noRew","circle",139,"H",1,"","",NA,NA,"",NA,0.736417867003183,"k",NA,20,"inlab","MacIntel",NA,NA,NA,NA
"226",73676,1,1,0,827,"repeat","letter","lettRpt","noRew","hexagon",160,"W",1,"","",NA,NA,"",NA,0.573585919002653,"k",NA,21,"inlab","MacIntel",NA,NA,NA,NA
"227",73676,1,0,1,828,"repeat","letter","lettRpt","noRew","circle",167,"B",1,"","",NA,NA,"",NA,0.48917586600146,"j",NA,22,"inlab","MacIntel",NA,NA,NA,NA
"228",73676,1,0,0,828,"repeat","letter","lettRpt","noRew","hexagon",181,"S",1,"","",NA,NA,"",NA,0.616322570996999,"k",NA,23,"inlab","MacIntel",NA,NA,NA,NA
"229",73676,1,0,1,829,"repeat","letter","lettRpt","noRew","circle",132,"D",1,"","",NA,NA,"",NA,0.539032166001562,"j",NA,24,"inlab","MacIntel",NA,NA,NA,NA
"230",73676,1,0,10,839,"repeat","letter","lettRpt","noRew","hexagon",125,"F",1,"","",NA,NA,"",NA,0.558770292002009,"j",NA,25,"inlab","MacIntel",NA,NA,NA,NA
"231",73676,1,0,1,840,"repeat","letter","lettRpt","noRew","circle",146,"Y",1,"","",NA,NA,"",NA,0.45964513799845,"k",NA,26,"inlab","MacIntel",NA,NA,NA,NA
"232",73676,1,0,10,850,"repeat","letter","lettRpt","noRew","hexagon",181,"B",1,"","",NA,NA,"",NA,0.516353981001885,"j",NA,27,"inlab","MacIntel",NA,NA,NA,NA
"233",73676,0,0,0,850,"repeat","letter",NA,"noRew","circle",160,"S",1,"","",NA,NA,"",NA,0.553327160007029,"j",NA,28,"inlab","MacIntel",NA,NA,NA,NA
"234",73676,1,1,0,850,"repeat","letter","lettRpt","noRew","hexagon",139,"U",1,"","",NA,NA,"",NA,0.662027571008366,"k",NA,29,"inlab","MacIntel",NA,NA,NA,NA
"235",73676,1,0,10,860,"repeat","letter","lettRpt","noRew","hexagon",167,"W",1,"","",NA,NA,"",NA,0.534831208002288,"k",NA,30,"inlab","MacIntel",NA,NA,NA,NA
"236",73676,1,0,10,870,"repeat","letter","lettRpt","noRew","circle",174,"H",1,"","",NA,NA,"",NA,0.499524844999542,"j",NA,31,"inlab","MacIntel",NA,NA,NA,NA
"237",73676,1,0,1,871,"repeat","letter","lettRpt","noRew","circle",132,"B",2,"","",NA,NA,"",NA,0.575707572003012,"j",NA,0,"inlab","MacIntel",NA,NA,NA,NA
"238",73676,1,0,0,871,"repeat","letter","lettRpt","noRew","hexagon",160,"U",2,"","",NA,NA,"",NA,0.571354503008479,"k",NA,1,"inlab","MacIntel",NA,NA,NA,NA
"239",73676,1,0,0,871,"repeat","letter","lettRpt","noRew","hexagon",181,"D",2,"","",NA,NA,"",NA,0.678356746007921,"j",NA,2,"inlab","MacIntel",NA,NA,NA,NA
"240",73676,1,0,1,872,"repeat","letter","lettRpt","noRew","circle",125,"F",2,"","",NA,NA,"",NA,0.501570817999891,"j",NA,3,"inlab","MacIntel",NA,NA,NA,NA
"241",73676,1,0,10,882,"repeat","letter","lettRpt","noRew","hexagon",167,"Y",2,"","",NA,NA,"",NA,0.405293577998236,"k",NA,4,"inlab","MacIntel",NA,NA,NA,NA
"242",73676,0,0,0,882,"repeat","letter",NA,"noRew","circle",174,"W",2,"","",NA,NA,"",NA,0.479759552006726,"j",NA,5,"inlab","MacIntel",NA,NA,NA,NA
"243",73676,0,1,0,882,"repeat","letter",NA,"noRew","circle",139,"H",2,"","",NA,NA,"",NA,0.535138024002663,"k",NA,6,"inlab","MacIntel",NA,NA,NA,NA
"244",73676,1,1,0,882,"repeat","letter","lettRpt","noRew","hexagon",146,"S",2,"","",NA,NA,"",NA,0.500250153003435,"k",NA,7,"inlab","MacIntel",NA,NA,NA,NA
"245",73676,1,0,1,883,"repeat","letter","lettRpt","noRew","circle",132,"B",2,"","",NA,NA,"",NA,0.331660272997397,"j",NA,8,"inlab","MacIntel",NA,NA,NA,NA
"246",73676,1,0,10,893,"switch","number","numSwt","noRew","hexagon",160,"U",2,"","",NA,NA,"",NA,0.600595171003079,"f",NA,9,"inlab","MacIntel",NA,NA,NA,NA
"247",73676,1,0,10,903,"repeat","number","numRpt","noRew","hexagon",181,"D",2,"","",NA,NA,"",NA,0.556329910999921,"f",NA,10,"inlab","MacIntel",NA,NA,NA,NA
"248",73676,1,0,1,904,"repeat","number","numRpt","noRew","circle",125,"F",2,"","",NA,NA,"",NA,0.535311188003107,"d",NA,11,"inlab","MacIntel",NA,NA,NA,NA
"249",73676,1,0,1,905,"repeat","number","numRpt","noRew","circle",167,"Y",2,"","",NA,NA,"",NA,0.436230176004756,"f",NA,12,"inlab","MacIntel",NA,NA,NA,NA
"250",73676,1,0,10,915,"repeat","number","numRpt","noRew","hexagon",174,"W",2,"","",NA,NA,"",NA,0.598900968005182,"f",NA,13,"inlab","MacIntel",NA,NA,NA,NA
"251",73676,1,0,10,925,"repeat","number","numRpt","noRew","hexagon",139,"H",2,"","",NA,NA,"",NA,0.633506096004567,"d",NA,14,"inlab","MacIntel",NA,NA,NA,NA
"252",73676,1,0,10,935,"repeat","number","numRpt","noRew","circle",146,"S",2,"","",NA,NA,"",NA,0.546441632999631,"d",NA,15,"inlab","MacIntel",NA,NA,NA,NA
"253",73676,1,0,1,936,"repeat","number","numRpt","noRew","circle",132,"D",2,"","",NA,NA,"",NA,0.519695946000866,"d",NA,16,"inlab","MacIntel",NA,NA,NA,NA
"254",73676,1,0,10,946,"repeat","number","numRpt","noRew","hexagon",125,"H",2,"","",NA,NA,"",NA,0.468410593995941,"d",NA,17,"inlab","MacIntel",NA,NA,NA,NA
"255",73676,1,0,10,956,"repeat","number","numRpt","noRew","circle",167,"Y",2,"","",NA,NA,"",NA,0.56519488900085,"f",NA,18,"inlab","MacIntel",NA,NA,NA,NA
"256",73676,0,0,0,956,"repeat","number",NA,"noRew","hexagon",160,"F",2,"","",NA,NA,"",NA,0.752409088003333,"d",NA,19,"inlab","MacIntel",NA,NA,NA,NA
"257",73676,1,1,10,966,"repeat","number","numRpt","noRew","hexagon",174,"S",2,"","",NA,NA,"",NA,0.605845530997613,"f",NA,20,"inlab","MacIntel",NA,NA,NA,NA
"258",73676,1,0,1,967,"repeat","number","numRpt","noRew","circle",181,"B",2,"","",NA,NA,"",NA,0.519644890002382,"f",NA,21,"inlab","MacIntel",NA,NA,NA,NA
"259",73676,1,0,1,968,"repeat","number","numRpt","noRew","circle",146,"W",2,"","",NA,NA,"",NA,0.62099769100314,"d",NA,22,"inlab","MacIntel",NA,NA,NA,NA
"260",73676,1,0,1,969,"repeat","number","numRpt","noRew","hexagon",139,"U",2,"","",NA,NA,"",NA,0.55092434600374,"d",NA,23,"inlab","MacIntel",NA,NA,NA,NA
"261",73676,1,0,10,979,"repeat","number","numRpt","noRew","hexagon",174,"F",2,"","",NA,NA,"",NA,0.700156972008699,"f",NA,24,"inlab","MacIntel",NA,NA,NA,NA
"262",73676,1,0,1,980,"repeat","number","numRpt","noRew","circle",181,"D",2,"","",NA,NA,"",NA,0.474001934999251,"f",NA,25,"inlab","MacIntel",NA,NA,NA,NA
"263",73676,1,0,1,981,"repeat","number","numRpt","noRew","circle",132,"W",2,"","",NA,NA,"",NA,0.426808145006362,"d",NA,26,"inlab","MacIntel",NA,NA,NA,NA
"264",73676,1,0,10,991,"repeat","number","numRpt","noRew","hexagon",139,"S",2,"","",NA,NA,"",NA,0.636271976007265,"d",NA,27,"inlab","MacIntel",NA,NA,NA,NA
"265",73676,1,0,1,992,"repeat","number","numRpt","noRew","circle",160,"H",2,"","",NA,NA,"",NA,0.62985511100851,"f",NA,28,"inlab","MacIntel",NA,NA,NA,NA
"266",73676,1,0,10,1002,"repeat","number","numRpt","noRew","hexagon",125,"U",2,"","",NA,NA,"",NA,0.567041478003375,"d",NA,29,"inlab","MacIntel",NA,NA,NA,NA
"267",73676,1,0,10,1012,"repeat","number","numRpt","noRew","hexagon",146,"B",2,"","",NA,NA,"",NA,0.586435643999721,"d",NA,30,"inlab","MacIntel",NA,NA,NA,NA
"268",73676,1,0,1,1013,"repeat","number","numRpt","noRew","circle",167,"Y",2,"","",NA,NA,"",NA,0.589296487007232,"f",NA,31,"inlab","MacIntel",NA,NA,NA,NA
"269",73676,1,0,1,1014,"repeat","number","numRpt","noRew","triangle",125,"H",3,"","",NA,NA,"",NA,0.631479682000645,"d",NA,0,"inlab","MacIntel",NA,NA,NA,NA
"270",73676,1,0,1,1015,"repeat","number","numRpt","noRew","star",167,"W",3,"","",NA,NA,"",NA,0.528462371003116,"f",NA,1,"inlab","MacIntel",NA,NA,NA,NA
"271",73676,1,0,1,1016,"repeat","number","numRpt","noRew","triangle",174,"B",3,"","",NA,NA,"",NA,0.550436635996448,"f",NA,2,"inlab","MacIntel",NA,NA,NA,NA
"272",73676,0,0,0,1016,"repeat","number",NA,"noRew","star",139,"F",3,"","",NA,NA,"",NA,0.61976266700367,"f",NA,3,"inlab","MacIntel",NA,NA,NA,NA
"273",73676,1,1,0,1016,"repeat","number","numRpt","noRew","star",132,"U",3,"","",NA,NA,"",NA,0.717678610999428,"d",NA,4,"inlab","MacIntel",NA,NA,NA,NA
"274",73676,0,0,0,1016,"repeat","number",NA,"noRew","triangle",146,"D",3,"","",NA,NA,"",NA,0.659787178003171,"f",NA,5,"inlab","MacIntel",NA,NA,NA,NA
"275",73676,1,1,0,1016,"repeat","number","numRpt","noRew","star",181,"Y",3,"","",NA,NA,"",NA,0.739497939008288,"f",NA,6,"inlab","MacIntel",NA,NA,NA,NA
"276",73676,0,0,0,1016,"repeat","number",NA,"noRew","triangle",160,"S",3,"","",NA,NA,"",NA,0.624092132005899,"d",NA,7,"inlab","MacIntel",NA,NA,NA,NA
"277",73676,1,1,10,1026,"repeat","number","numRpt","noRew","star",125,"H",3,"","",NA,NA,"",NA,0.352849271002924,"d",NA,8,"inlab","MacIntel",NA,NA,NA,NA
"278",73676,1,0,1,1027,"repeat","number","numRpt","noRew","triangle",167,"W",3,"","",NA,NA,"",NA,0.501528218999738,"f",NA,9,"inlab","MacIntel",NA,NA,NA,NA
"279",73676,1,0,1,1028,"repeat","number","numRpt","noRew","triangle",174,"B",3,"","",NA,NA,"",NA,0.6763659260032,"f",NA,10,"inlab","MacIntel",NA,NA,NA,NA
"280",73676,1,0,0,1028,"repeat","number","numRpt","noRew","star",139,"F",3,"","",NA,NA,"",NA,0.579356569003721,"d",NA,11,"inlab","MacIntel",NA,NA,NA,NA
"281",73676,1,0,0,1028,"repeat","number","numRpt","noRew","star",132,"U",3,"","",NA,NA,"",NA,0.599495601003582,"d",NA,12,"inlab","MacIntel",NA,NA,NA,NA
"282",73676,0,0,0,1028,"repeat","number",NA,"noRew","triangle",146,"D",3,"","",NA,NA,"",NA,0.970252743005403,"f",NA,13,"inlab","MacIntel",NA,NA,NA,NA
"283",73676,1,1,1,1029,"repeat","number","numRpt","noRew","triangle",181,"Y",3,"","",NA,NA,"",NA,0.613121936003154,"f",NA,14,"inlab","MacIntel",NA,NA,NA,NA
"284",73676,1,0,0,1029,"repeat","number","numRpt","noRew","star",160,"S",3,"","",NA,NA,"",NA,0.57624763000058,"f",NA,15,"inlab","MacIntel",NA,NA,NA,NA
"285",73676,1,0,10,1039,"repeat","number","numRpt","noRew","triangle",132,"H",3,"","",NA,NA,"",NA,0.555858760999399,"d",NA,16,"inlab","MacIntel",NA,NA,NA,NA
"286",73676,1,0,1,1040,"repeat","number","numRpt","noRew","star",174,"B",3,"","",NA,NA,"",NA,0.432665030006319,"f",NA,17,"inlab","MacIntel",NA,NA,NA,NA
"287",73676,1,0,1,1041,"repeat","number","numRpt","noRew","triangle",160,"W",3,"","",NA,NA,"",NA,0.473592959002417,"f",NA,18,"inlab","MacIntel",NA,NA,NA,NA
"288",73676,1,0,1,1042,"repeat","number","numRpt","noRew","star",181,"D",3,"","",NA,NA,"",NA,0.512585700002091,"f",NA,19,"inlab","MacIntel",NA,NA,NA,NA
"289",73676,1,0,10,1052,"repeat","number","numRpt","noRew","star",167,"S",3,"","",NA,NA,"",NA,0.424222575005842,"f",NA,20,"inlab","MacIntel",NA,NA,NA,NA
"290",73676,1,0,1,1053,"repeat","number","numRpt","noRew","triangle",125,"F",3,"","",NA,NA,"",NA,0.418236110999715,"d",NA,21,"inlab","MacIntel",NA,NA,NA,NA
"291",73676,1,0,0,1053,"repeat","number","numRpt","noRew","star",139,"U",3,"","",NA,NA,"",NA,0.634783825000341,"d",NA,22,"inlab","MacIntel",NA,NA,NA,NA
"292",73676,0,0,0,1053,"repeat","number",NA,"noRew","triangle",146,"Y",3,"","",NA,NA,"",NA,0.659948988999531,"f",NA,23,"inlab","MacIntel",NA,NA,NA,NA
"293",73676,0,1,0,1053,"repeat","number",NA,"noRew","star",181,"D",3,"","",NA,NA,"",NA,0.46808806899935,"d",NA,24,"inlab","MacIntel",NA,NA,NA,NA
"294",73676,1,1,10,1063,"repeat","number","numRpt","noRew","triangle",174,"Y",3,"","",NA,NA,"",NA,0.532574667005974,"f",NA,25,"inlab","MacIntel",NA,NA,NA,NA
"295",73676,1,0,10,1073,"repeat","number","numRpt","noRew","star",167,"H",3,"","",NA,NA,"",NA,0.529259830000228,"f",NA,26,"inlab","MacIntel",NA,NA,NA,NA
"296",73676,1,0,10,1083,"repeat","number","numRpt","noRew","triangle",125,"W",3,"","",NA,NA,"",NA,0.503014764006366,"d",NA,27,"inlab","MacIntel",NA,NA,NA,NA
"297",73676,1,0,1,1084,"repeat","number","numRpt","noRew","triangle",160,"B",3,"","",NA,NA,"",NA,0.541970908001531,"f",NA,28,"inlab","MacIntel",NA,NA,NA,NA
"298",73676,1,0,0,1084,"repeat","number","numRpt","noRew","star",132,"U",3,"","",NA,NA,"",NA,0.60981606500718,"d",NA,29,"inlab","MacIntel",NA,NA,NA,NA
"299",73676,0,0,0,1084,"repeat","number",NA,"noRew","star",146,"S",3,"","",NA,NA,"",NA,0.405632050002168,"f",NA,30,"inlab","MacIntel",NA,NA,NA,NA
"300",73676,0,1,0,1084,"repeat","number",NA,"noRew","triangle",139,"F",3,"","",NA,NA,"",NA,0.919193369998538,"f",NA,31,"inlab","MacIntel",NA,NA,NA,NA
"301",73676,1,1,1,1085,"repeat","number","numRpt","noRew","circle",181,"F",4,"","",NA,NA,"",NA,0.590507419001369,"f",NA,0,"inlab","MacIntel",NA,NA,NA,NA
"302",73676,0,0,0,1085,"repeat","number",NA,"noRew","hexagon",125,"Y",4,"","",NA,NA,"",NA,0.578766359998554,"f",NA,1,"inlab","MacIntel",NA,NA,NA,NA
"303",73676,1,1,10,1095,"repeat","number","numRpt","noRew","circle",139,"W",4,"","",NA,NA,"",NA,0.75031173699972,"d",NA,2,"inlab","MacIntel",NA,NA,NA,NA
"304",73676,1,0,0,1095,"repeat","number","numRpt","noRew","hexagon",174,"U",4,"","",NA,NA,"",NA,0.618506275000982,"f",NA,3,"inlab","MacIntel",NA,NA,NA,NA
"305",73676,1,0,1,1096,"repeat","number","numRpt","noRew","circle",160,"B",4,"","",NA,NA,"",NA,0.682747062004637,"f",NA,4,"inlab","MacIntel",NA,NA,NA,NA
"306",73676,1,0,0,1096,"repeat","number","numRpt","noRew","hexagon",132,"D",4,"","",NA,NA,"",NA,0.562708833007491,"d",NA,5,"inlab","MacIntel",NA,NA,NA,NA
"307",73676,0,0,0,1096,"repeat","number",NA,"noRew","hexagon",146,"S",4,"","",NA,NA,"",NA,0.599464686005376,"f",NA,6,"inlab","MacIntel",NA,NA,NA,NA
"308",73676,1,1,1,1097,"repeat","number","numRpt","noRew","circle",167,"H",4,"","",NA,NA,"",NA,0.57019757800299,"f",NA,7,"inlab","MacIntel",NA,NA,NA,NA
"309",73676,1,0,0,1097,"repeat","number","numRpt","noRew","hexagon",181,"F",4,"","",NA,NA,"",NA,0.637350537006569,"f",NA,8,"inlab","MacIntel",NA,NA,NA,NA
"310",73676,1,0,1,1098,"repeat","number","numRpt","noRew","circle",125,"Y",4,"","",NA,NA,"",NA,0.526627725004801,"d",NA,9,"inlab","MacIntel",NA,NA,NA,NA
"311",73676,1,0,10,1108,"switch","letter","lettSwt","noRew","hexagon",139,"W",4,"","",NA,NA,"",NA,0.556290271000762,"k",NA,10,"inlab","MacIntel",NA,NA,NA,NA
"312",73676,1,0,1,1109,"repeat","letter","lettRpt","noRew","circle",174,"U",4,"","",NA,NA,"",NA,0.624753698000859,"k",NA,11,"inlab","MacIntel",NA,NA,NA,NA
"313",73676,1,0,10,1119,"repeat","letter","lettRpt","noRew","circle",160,"B",4,"","",NA,NA,"",NA,0.594741430002614,"j",NA,12,"inlab","MacIntel",NA,NA,NA,NA
"314",73676,1,0,10,1129,"repeat","letter","lettRpt","noRew","hexagon",132,"D",4,"","",NA,NA,"",NA,0.668439840002975,"j",NA,13,"inlab","MacIntel",NA,NA,NA,NA
"315",73676,1,0,1,1130,"repeat","letter","lettRpt","noRew","circle",146,"S",4,"","",NA,NA,"",NA,0.548865625998587,"k",NA,14,"inlab","MacIntel",NA,NA,NA,NA
"316",73676,0,0,0,1130,"repeat","letter",NA,"noRew","hexagon",167,"H",4,"","",NA,NA,"",NA,0.56873370300309,"k",NA,15,"inlab","MacIntel",NA,NA,NA,NA
"317",73676,1,1,1,1131,"repeat","letter","lettRpt","noRew","circle",181,"B",4,"","",NA,NA,"",NA,0.636934604997805,"j",NA,16,"inlab","MacIntel",NA,NA,NA,NA
"318",73676,1,0,10,1141,"repeat","letter","lettRpt","noRew","hexagon",125,"U",4,"","",NA,NA,"",NA,0.734414145008486,"k",NA,17,"inlab","MacIntel",NA,NA,NA,NA
"319",73676,0,0,0,1141,"repeat","letter",NA,"noRew","circle",167,"D",4,"","",NA,NA,"",NA,0.811542561001261,"k",NA,18,"inlab","MacIntel",NA,NA,NA,NA
"320",73676,1,1,10,1151,"repeat","letter","lettRpt","noRew","hexagon",146,"W",4,"","",NA,NA,"",NA,0.701605203001236,"k",NA,19,"inlab","MacIntel",NA,NA,NA,NA
"321",73676,1,0,10,1161,"repeat","letter","lettRpt","noRew","hexagon",132,"H",4,"","",NA,NA,"",NA,0.635221654003544,"j",NA,20,"inlab","MacIntel",NA,NA,NA,NA
"322",73676,1,0,1,1162,"repeat","letter","lettRpt","noRew","circle",174,"F",4,"","",NA,NA,"",NA,0.740072838008928,"j",NA,21,"inlab","MacIntel",NA,NA,NA,NA
"323",73676,1,0,1,1163,"repeat","letter","lettRpt","noRew","circle",139,"Y",4,"","",NA,NA,"",NA,0.649276443007693,"k",NA,22,"inlab","MacIntel",NA,NA,NA,NA
"324",73676,0,0,0,1163,"repeat","letter",NA,"noRew","hexagon",160,"S",4,"","",NA,NA,"",NA,0.777726332002203,"j",NA,23,"inlab","MacIntel",NA,NA,NA,NA
"325",73676,1,1,1,1164,"repeat","letter","lettRpt","noRew","circle",139,"U",4,"","",NA,NA,"",NA,0.605982567001774,"k",NA,24,"inlab","MacIntel",NA,NA,NA,NA
"326",73676,1,0,10,1174,"switch","number","numSwt","noRew","hexagon",160,"H",4,"","",NA,NA,"",NA,0.615959444003238,"f",NA,25,"inlab","MacIntel",NA,NA,NA,NA
"327",73676,1,0,10,1184,"switch","letter","lettSwt","noRew","hexagon",167,"F",4,"","",NA,NA,"",NA,0.545486583003367,"j",NA,26,"inlab","MacIntel",NA,NA,NA,NA
"328",73676,1,0,1,1185,"switch","number","numSwt","noRew","circle",146,"S",4,"","",NA,NA,"",NA,0.607145458998275,"d",NA,27,"inlab","MacIntel",NA,NA,NA,NA
"329",73676,1,0,1,1186,"switch","letter","lettSwt","noRew","circle",132,"B",4,"","",NA,NA,"",NA,0.649633779001306,"j",NA,28,"inlab","MacIntel",NA,NA,NA,NA
"330",73676,1,0,10,1196,"repeat","letter","lettRpt","noRew","hexagon",181,"D",4,"","",NA,NA,"",NA,0.602085802005604,"j",NA,29,"inlab","MacIntel",NA,NA,NA,NA
"331",73676,1,0,1,1197,"repeat","letter","lettRpt","noRew","circle",125,"Y",4,"","",NA,NA,"",NA,0.524670078004419,"k",NA,30,"inlab","MacIntel",NA,NA,NA,NA
"332",73676,0,0,0,1197,"repeat","letter",NA,"noRew","hexagon",174,"W",4,"","",NA,NA,"",NA,0.673628398006258,"j",NA,31,"inlab","MacIntel",NA,NA,NA,NA
"333",73676,1,1,1,1198,"repeat","letter","lettRpt","noRew","triangle",132,"D",5,"","",NA,NA,"",NA,0.982411017001141,"j",NA,0,"inlab","MacIntel",NA,NA,NA,NA
"334",73676,1,0,0,1198,"repeat","letter","lettRpt","noRew","star",146,"U",5,"","",NA,NA,"",NA,0.817767965003441,"k",NA,1,"inlab","MacIntel",NA,NA,NA,NA
"335",73676,1,0,0,1198,"switch","number","numSwt","noRew","star",125,"B",5,"","",NA,NA,"",NA,0.68313083799876,"d",NA,2,"inlab","MacIntel",NA,NA,NA,NA
"336",73676,0,0,0,1198,"repeat","number",NA,"noRew","triangle",167,"F",5,"","",NA,NA,"",NA,0.338909541002067,"d",NA,3,"inlab","MacIntel",NA,NA,NA,NA
"337",73676,1,1,0,1198,"switch","letter","lettSwt","noRew","star",181,"W",5,"","",NA,NA,"",NA,0.606830586002616,"k",NA,4,"inlab","MacIntel",NA,NA,NA,NA
"338",73676,1,0,10,1208,"switch","number","numSwt","noRew","triangle",160,"Y",5,"","",NA,NA,"",NA,0.699421826997423,"f",NA,5,"inlab","MacIntel",NA,NA,NA,NA
"339",73676,1,0,1,1209,"repeat","number","numRpt","noRew","triangle",174,"H",5,"","",NA,NA,"",NA,0.704830770002445,"f",NA,6,"inlab","MacIntel",NA,NA,NA,NA
"340",73676,1,0,0,1209,"repeat","number","numRpt","noRew","star",139,"S",5,"","",NA,NA,"",NA,0.678964584003552,"d",NA,7,"inlab","MacIntel",NA,NA,NA,NA
"341",73676,1,0,1,1210,"repeat","number","numRpt","noRew","triangle",132,"D",5,"","",NA,NA,"",NA,0.718479736999143,"d",NA,8,"inlab","MacIntel",NA,NA,NA,NA
"342",73676,1,0,0,1210,"repeat","number","numRpt","noRew","star",146,"U",5,"","",NA,NA,"",NA,0.940616157007753,"d",NA,9,"inlab","MacIntel",NA,NA,NA,NA
"343",73676,1,0,1,1211,"repeat","number","numRpt","noRew","triangle",125,"B",5,"","",NA,NA,"",NA,0.800807975007046,"d",NA,10,"inlab","MacIntel",NA,NA,NA,NA
"344",73676,1,0,0,1211,"repeat","number","numRpt","noRew","star",167,"F",5,"","",NA,NA,"",NA,0.915724831007537,"f",NA,11,"inlab","MacIntel",NA,NA,NA,NA
"345",73676,1,0,10,1221,"repeat","number","numRpt","noRew","triangle",181,"W",5,"","",NA,NA,"",NA,0.728474137002195,"f",NA,12,"inlab","MacIntel",NA,NA,NA,NA
"346",73676,1,0,0,1221,"repeat","number","numRpt","noRew","star",160,"Y",5,"","",NA,NA,"",NA,0.654337683998165,"f",NA,13,"inlab","MacIntel",NA,NA,NA,NA
"347",73676,1,0,1,1222,"repeat","number","numRpt","noRew","triangle",174,"H",5,"","",NA,NA,"",NA,0.615943199998583,"f",NA,14,"inlab","MacIntel",NA,NA,NA,NA
"348",73676,1,0,0,1222,"repeat","number","numRpt","noRew","star",139,"S",5,"","",NA,NA,"",NA,0.728675567006576,"d",NA,15,"inlab","MacIntel",NA,NA,NA,NA
"349",73676,0,0,0,1222,"repeat","number",NA,"noRew","star",132,"B",5,"","",NA,NA,"",NA,0.726288620004198,"f",NA,16,"inlab","MacIntel",NA,NA,NA,NA
"350",73676,1,1,1,1223,"repeat","number","numRpt","noRew","triangle",125,"S",5,"","",NA,NA,"",NA,0.635156769007153,"d",NA,17,"inlab","MacIntel",NA,NA,NA,NA
"351",73676,1,0,0,1223,"repeat","number","numRpt","noRew","star",181,"D",5,"","",NA,NA,"",NA,0.723741125002562,"f",NA,18,"inlab","MacIntel",NA,NA,NA,NA
"352",73676,1,0,1,1224,"repeat","number","numRpt","noRew","triangle",167,"Y",5,"","",NA,NA,"",NA,0.609448786002758,"f",NA,19,"inlab","MacIntel",NA,NA,NA,NA
"353",73676,0,0,0,1224,"repeat","number",NA,"noRew","triangle",174,"U",5,"","",NA,NA,"",NA,0.690932087003603,"d",NA,20,"inlab","MacIntel",NA,NA,NA,NA
"354",73676,1,1,0,1224,"repeat","number","numRpt","noRew","star",160,"H",5,"","",NA,NA,"",NA,0.641733408003347,"f",NA,21,"inlab","MacIntel",NA,NA,NA,NA
"355",73676,0,0,0,1224,"repeat","number",NA,"noRew","star",146,"W",5,"","",NA,NA,"",NA,0.595296509003674,"f",NA,22,"inlab","MacIntel",NA,NA,NA,NA
"356",73676,1,1,1,1225,"repeat","number","numRpt","noRew","triangle",139,"F",5,"","",NA,NA,"",NA,0.582580698996026,"d",NA,23,"inlab","MacIntel",NA,NA,NA,NA
"357",73676,1,0,1,1226,"repeat","number","numRpt","noRew","triangle",160,"Y",5,"","",NA,NA,"",NA,0.490328585001407,"f",NA,24,"inlab","MacIntel",NA,NA,NA,NA
"358",73676,0,0,0,1226,"repeat","number",NA,"noRew","star",139,"U",5,"","",NA,NA,"",NA,0.800938431006216,"f",NA,25,"inlab","MacIntel",NA,NA,NA,NA
"359",73676,1,1,0,1226,"repeat","number","numRpt","noRew","star",181,"F",5,"","",NA,NA,"",NA,0.580088975002582,"f",NA,26,"inlab","MacIntel",NA,NA,NA,NA
"360",73676,1,0,1,1227,"repeat","number","numRpt","noRew","triangle",146,"B",5,"","",NA,NA,"",NA,0.567525753001973,"d",NA,27,"inlab","MacIntel",NA,NA,NA,NA
"361",73676,0,0,0,1227,"repeat","number",NA,"noRew","triangle",132,"W",5,"","",NA,NA,"",NA,0.4748342410021,"f",NA,28,"inlab","MacIntel",NA,NA,NA,NA
"362",73676,1,1,0,1227,"repeat","number","numRpt","noRew","star",125,"D",5,"","",NA,NA,"",NA,0.675179695004772,"d",NA,29,"inlab","MacIntel",NA,NA,NA,NA
"363",73676,1,0,10,1237,"repeat","number","numRpt","noRew","star",167,"H",5,"","",NA,NA,"",NA,0.569828644001973,"f",NA,30,"inlab","MacIntel",NA,NA,NA,NA
"364",73676,1,0,1,1238,"repeat","number","numRpt","noRew","triangle",174,"S",5,"","",NA,NA,"",NA,0.510215077003522,"f",NA,31,"inlab","MacIntel",NA,NA,NA,NA
