"","participant","acc","E1","points_trial","points_cumul","alt","task","condition","rewCond","curr_shape","curr_topStim","curr_bottStim","blockNum","LShape_ID","RShape_ID","trainBlock","training.thisN","training_resp.keys","training_resp.rt","target_resp.rt","target_resp.keys","trials_norew.thisRepN","trials_rew.thisRepN","platform","OS","browser","xResolution","yResolution","rewExpect"
"1",96409,NA,NA,10,10,"","","training","","","",NA,NA,"triangle","hexagon",0,0,"a",1.00590762899992,NA,"",NA,NA,"inlab","MacIntel",NA,NA,NA,NA
"2",96409,NA,NA,10,20,"","","training","","","",NA,NA,"star","hexagon",0,1,"l",0.815000099999907,NA,"",NA,NA,"inlab","MacIntel",NA,NA,NA,NA
"3",96409,NA,NA,1,21,"","","training","","","",NA,NA,"circle","star",0,2,"a",0.65746749799996,NA,"",NA,NA,"inlab","MacIntel",NA,NA,NA,NA
"4",96409,NA,NA,10,31,"","","training","","","",NA,NA,"hexagon","triangle",0,3,"l",1.35609602099998,NA,"",NA,NA,"inlab","MacIntel",NA,NA,NA,NA
"5",96409,NA,NA,10,41,"","","training","","","",NA,NA,"triangle","star",0,4,"l",1.14481553099995,NA,"",NA,NA,"inlab","MacIntel",NA,NA,NA,NA
"6",96409,NA,NA,10,51,"","","training","","","",NA,NA,"star","triangle",0,5,"a",0.758977011999832,NA,"",NA,NA,"inlab","MacIntel",NA,NA,NA,NA
"7",96409,NA,NA,10,61,"","","training","","","",NA,NA,"hexagon","circle",0,6,"a",1.50093785499985,NA,"",NA,NA,"inlab","MacIntel",NA,NA,NA,NA
"8",96409,NA,NA,1,62,"","","training","","","",NA,NA,"hexagon","star",0,7,"l",0.884319151,NA,"",NA,NA,"inlab","MacIntel",NA,NA,NA,NA
"9",96409,NA,NA,10,72,"","","training","","","",NA,NA,"triangle","circle",0,8,"a",0.700534420999929,NA,"",NA,NA,"inlab","MacIntel",NA,NA,NA,NA
"10",96409,NA,NA,1,73,"","","training","","","",NA,NA,"circle","triangle",0,9,"l",0.717175585999939,NA,"",NA,NA,"inlab","MacIntel",NA,NA,NA,NA
"11",96409,NA,NA,1,74,"","","training","","","",NA,NA,"star","circle",0,10,"a",0.933108882999932,NA,"",NA,NA,"inlab","MacIntel",NA,NA,NA,NA
"12",96409,NA,NA,10,84,"","","training","","","",NA,NA,"circle","hexagon",0,11,"l",1.45845474699991,NA,"",NA,NA,"inlab","MacIntel",NA,NA,NA,NA
"13",96409,NA,NA,1,85,"","","training","","","",NA,NA,"star","triangle",0,12,"a",0.916155301000117,NA,"",NA,NA,"inlab","MacIntel",NA,NA,NA,NA
"14",96409,NA,NA,1,86,"","","training","","","",NA,NA,"hexagon","triangle",0,13,"a",0.963812109999935,NA,"",NA,NA,"inlab","MacIntel",NA,NA,NA,NA
"15",96409,NA,NA,10,96,"","","training","","","",NA,NA,"hexagon","star",0,14,"l",0.608908042999929,NA,"",NA,NA,"inlab","MacIntel",NA,NA,NA,NA
"16",96409,NA,NA,10,106,"","","training","","","",NA,NA,"triangle","hexagon",0,15,"l",1.44451830100002,NA,"",NA,NA,"inlab","MacIntel",NA,NA,NA,NA
"17",96409,NA,NA,10,116,"","","training","","","",NA,NA,"star","hexagon",0,16,"a",1.37407217099985,NA,"",NA,NA,"inlab","MacIntel",NA,NA,NA,NA
"18",96409,NA,NA,1,117,"","","training","","","",NA,NA,"circle","star",0,17,"l",1.14589235099993,NA,"",NA,NA,"inlab","MacIntel",NA,NA,NA,NA
"19",96409,NA,NA,10,127,"","","training","","","",NA,NA,"circle","triangle",0,18,"l",1.70341317199996,NA,"",NA,NA,"inlab","MacIntel",NA,NA,NA,NA
"20",96409,NA,NA,10,137,"","","training","","","",NA,NA,"star","circle",0,19,"a",0.550619801000039,NA,"",NA,NA,"inlab","MacIntel",NA,NA,NA,NA
"21",96409,NA,NA,1,138,"","","training","","","",NA,NA,"hexagon","circle",0,20,"l",0.852720141999953,NA,"",NA,NA,"inlab","MacIntel",NA,NA,NA,NA
"22",96409,NA,NA,10,148,"","","training","","","",NA,NA,"triangle","circle",0,21,"a",0.534336951999876,NA,"",NA,NA,"inlab","MacIntel",NA,NA,NA,NA
"23",96409,NA,NA,10,158,"","","training","","","",NA,NA,"circle","hexagon",0,22,"l",0.78084428599982,NA,"",NA,NA,"inlab","MacIntel",NA,NA,NA,NA
"24",96409,NA,NA,10,168,"","","training","","","",NA,NA,"triangle","star",0,23,"a",0.898356708999927,NA,"",NA,NA,"inlab","MacIntel",NA,NA,NA,NA
"25",96409,NA,NA,10,178,"","","training","","","",NA,NA,"circle","triangle",0,24,"l",0.778611186999797,NA,"",NA,NA,"inlab","MacIntel",NA,NA,NA,NA
"26",96409,NA,NA,10,188,"","","training","","","",NA,NA,"hexagon","triangle",0,25,"a",0.735433297999862,NA,"",NA,NA,"inlab","MacIntel",NA,NA,NA,NA
"27",96409,NA,NA,1,189,"","","training","","","",NA,NA,"star","triangle",0,26,"l",0.89399289999983,NA,"",NA,NA,"inlab","MacIntel",NA,NA,NA,NA
"28",96409,NA,NA,10,199,"","","training","","","",NA,NA,"triangle","hexagon",0,27,"l",1.46228712199991,NA,"",NA,NA,"inlab","MacIntel",NA,NA,NA,NA
"29",96409,NA,NA,10,209,"","","training","","","",NA,NA,"triangle","circle",0,28,"a",0.678492273999836,NA,"",NA,NA,"inlab","MacIntel",NA,NA,NA,NA
"30",96409,NA,NA,10,219,"","","training","","","",NA,NA,"hexagon","circle",0,29,"a",0.615937545999941,NA,"",NA,NA,"inlab","MacIntel",NA,NA,NA,NA
"31",96409,NA,NA,1,220,"","","training","","","",NA,NA,"hexagon","star",0,30,"l",0.827525377000029,NA,"",NA,NA,"inlab","MacIntel",NA,NA,NA,NA
"32",96409,NA,NA,10,230,"","","training","","","",NA,NA,"circle","star",0,31,"l",0.821684240999957,NA,"",NA,NA,"inlab","MacIntel",NA,NA,NA,NA
"33",96409,NA,NA,10,240,"","","training","","","",NA,NA,"star","hexagon",0,32,"a",0.401263526000093,NA,"",NA,NA,"inlab","MacIntel",NA,NA,NA,NA
"34",96409,NA,NA,10,250,"","","training","","","",NA,NA,"star","circle",0,33,"a",0.508254844000021,NA,"",NA,NA,"inlab","MacIntel",NA,NA,NA,NA
"35",96409,NA,NA,10,260,"","","training","","","",NA,NA,"circle","hexagon",0,34,"l",0.63643583299995,NA,"",NA,NA,"inlab","MacIntel",NA,NA,NA,NA
"36",96409,NA,NA,10,270,"","","training","","","",NA,NA,"triangle","star",0,35,"a",1.06325250499981,NA,"",NA,NA,"inlab","MacIntel",NA,NA,NA,NA
"37",96409,NA,NA,1,271,"","","training","","","",NA,NA,"triangle","circle",1,0,"a",0.661962973999835,NA,"",NA,NA,"inlab","MacIntel",NA,NA,NA,NA
"38",96409,NA,NA,10,281,"","","training","","","",NA,NA,"triangle","hexagon",1,1,"a",0.86202871799992,NA,"",NA,NA,"inlab","MacIntel",NA,NA,NA,NA
"39",96409,NA,NA,1,282,"","","training","","","",NA,NA,"star","triangle",1,2,"l",1.06349163899995,NA,"",NA,NA,"inlab","MacIntel",NA,NA,NA,NA
"40",96409,NA,NA,1,283,"","","training","","","",NA,NA,"hexagon","triangle",1,3,"l",1.64032710300012,NA,"",NA,NA,"inlab","MacIntel",NA,NA,NA,NA
"41",96409,NA,NA,1,284,"","","training","","","",NA,NA,"hexagon","star",1,4,"l",0.857902247999846,NA,"",NA,NA,"inlab","MacIntel",NA,NA,NA,NA
"42",96409,NA,NA,1,285,"","","training","","","",NA,NA,"star","hexagon",1,5,"a",0.746661738999819,NA,"",NA,NA,"inlab","MacIntel",NA,NA,NA,NA
"43",96409,NA,NA,1,286,"","","training","","","",NA,NA,"circle","star",1,6,"a",1.39256340599991,NA,"",NA,NA,"inlab","MacIntel",NA,NA,NA,NA
"44",96409,NA,NA,1,287,"","","training","","","",NA,NA,"circle","triangle",1,7,"a",1.57256455100014,NA,"",NA,NA,"inlab","MacIntel",NA,NA,NA,NA
"45",96409,NA,NA,1,288,"","","training","","","",NA,NA,"hexagon","circle",1,8,"l",1.51269763000005,NA,"",NA,NA,"inlab","MacIntel",NA,NA,NA,NA
"46",96409,NA,NA,1,289,"","","training","","","",NA,NA,"star","circle",1,9,"a",1.83891849999986,NA,"",NA,NA,"inlab","MacIntel",NA,NA,NA,NA
"47",96409,NA,NA,10,299,"","","training","","","",NA,NA,"triangle","star",1,10,"l",1.4005722469999,NA,"",NA,NA,"inlab","MacIntel",NA,NA,NA,NA
"48",96409,NA,NA,10,309,"","","training","","","",NA,NA,"circle","hexagon",1,11,"l",1.00308829999994,NA,"",NA,NA,"inlab","MacIntel",NA,NA,NA,NA
"49",96409,NA,NA,10,319,"","","training","","","",NA,NA,"star","circle",1,12,"a",0.415778440999929,NA,"",NA,NA,"inlab","MacIntel",NA,NA,NA,NA
"50",96409,NA,NA,10,329,"","","training","","","",NA,NA,"circle","triangle",1,13,"l",0.675131470999986,NA,"",NA,NA,"inlab","MacIntel",NA,NA,NA,NA
"51",96409,NA,NA,1,330,"","","training","","","",NA,NA,"star","triangle",1,14,"a",0.572384504999945,NA,"",NA,NA,"inlab","MacIntel",NA,NA,NA,NA
"52",96409,NA,NA,10,340,"","","training","","","",NA,NA,"star","hexagon",1,15,"a",0.465917037000054,NA,"",NA,NA,"inlab","MacIntel",NA,NA,NA,NA
"53",96409,NA,NA,1,341,"","","training","","","",NA,NA,"triangle","circle",1,16,"l",0.794886907999853,NA,"",NA,NA,"inlab","MacIntel",NA,NA,NA,NA
"54",96409,NA,NA,1,342,"","","training","","","",NA,NA,"triangle","hexagon",1,17,"a",0.703278319999981,NA,"",NA,NA,"inlab","MacIntel",NA,NA,NA,NA
"55",96409,NA,NA,1,343,"","","training","","","",NA,NA,"hexagon","circle",1,18,"a",1.09555445599995,NA,"",NA,NA,"inlab","MacIntel",NA,NA,NA,NA
"56",96409,NA,NA,10,353,"","","training","","","",NA,NA,"circle","hexagon",1,19,"l",0.70240481199994,NA,"",NA,NA,"inlab","MacIntel",NA,NA,NA,NA
"57",96409,NA,NA,1,354,"","","training","","","",NA,NA,"circle","star",1,20,"l",0.74347247500009,NA,"",NA,NA,"inlab","MacIntel",NA,NA,NA,NA
"58",96409,NA,NA,1,355,"","","training","","","",NA,NA,"triangle","star",1,21,"l",0.86877777299992,NA,"",NA,NA,"inlab","MacIntel",NA,NA,NA,NA
"59",96409,NA,NA,1,356,"","","training","","","",NA,NA,"hexagon","star",1,22,"l",1.84631580399991,NA,"",NA,NA,"inlab","MacIntel",NA,NA,NA,NA
"60",96409,NA,NA,10,366,"","","training","","","",NA,NA,"hexagon","triangle",1,23,"a",1.01548221300004,NA,"",NA,NA,"inlab","MacIntel",NA,NA,NA,NA
"61",96409,NA,NA,10,376,"","","training","","","",NA,NA,"circle","hexagon",1,24,"l",0.746217693000062,NA,"",NA,NA,"inlab","MacIntel",NA,NA,NA,NA
"62",96409,NA,NA,10,386,"","","training","","","",NA,NA,"triangle","circle",1,25,"a",0.720422494999866,NA,"",NA,NA,"inlab","MacIntel",NA,NA,NA,NA
"63",96409,NA,NA,10,396,"","","training","","","",NA,NA,"star","hexagon",1,26,"a",0.615745659999902,NA,"",NA,NA,"inlab","MacIntel",NA,NA,NA,NA
"64",96409,NA,NA,10,406,"","","training","","","",NA,NA,"star","circle",1,27,"a",0.667635737999944,NA,"",NA,NA,"inlab","MacIntel",NA,NA,NA,NA
"65",96409,NA,NA,1,407,"","","training","","","",NA,NA,"star","triangle",1,28,"a",0.684662140999762,NA,"",NA,NA,"inlab","MacIntel",NA,NA,NA,NA
"66",96409,NA,NA,10,417,"","","training","","","",NA,NA,"hexagon","triangle",1,29,"a",1.20592111999986,NA,"",NA,NA,"inlab","MacIntel",NA,NA,NA,NA
"67",96409,NA,NA,1,418,"","","training","","","",NA,NA,"circle","star",1,30,"l",0.816613133999908,NA,"",NA,NA,"inlab","MacIntel",NA,NA,NA,NA
"68",96409,NA,NA,1,419,"","","training","","","",NA,NA,"circle","triangle",1,31,"l",0.596655082000098,NA,"",NA,NA,"inlab","MacIntel",NA,NA,NA,NA
"69",96409,NA,NA,1,420,"","","training","","","",NA,NA,"triangle","star",1,32,"l",0.44896613700007,NA,"",NA,NA,"inlab","MacIntel",NA,NA,NA,NA
"70",96409,NA,NA,10,430,"","","training","","","",NA,NA,"hexagon","circle",1,33,"a",0.0505215480000061,NA,"",NA,NA,"inlab","MacIntel",NA,NA,NA,NA
"71",96409,NA,NA,10,440,"","","training","","","",NA,NA,"hexagon","star",1,34,"l",0.653583555000068,NA,"",NA,NA,"inlab","MacIntel",NA,NA,NA,NA
"72",96409,NA,NA,10,450,"","","training","","","",NA,NA,"triangle","hexagon",1,35,"a",0.27126142599991,NA,"",NA,NA,"inlab","MacIntel",NA,NA,NA,NA
"73",96409,NA,NA,1,451,"","","training","","","",NA,NA,"hexagon","triangle",2,0,"l",1.48343147299988,NA,"",NA,NA,"inlab","MacIntel",NA,NA,NA,NA
"74",96409,NA,NA,10,461,"","","training","","","",NA,NA,"circle","triangle",2,1,"l",1.50502334299995,NA,"",NA,NA,"inlab","MacIntel",NA,NA,NA,NA
"75",96409,NA,NA,10,471,"","","training","","","",NA,NA,"star","circle",2,2,"a",0.44883259900007,NA,"",NA,NA,"inlab","MacIntel",NA,NA,NA,NA
"76",96409,NA,NA,10,481,"","","training","","","",NA,NA,"circle","star",2,3,"l",0.411239364999801,NA,"",NA,NA,"inlab","MacIntel",NA,NA,NA,NA
"77",96409,NA,NA,1,482,"","","training","","","",NA,NA,"star","triangle",2,4,"a",0.375183986999673,NA,"",NA,NA,"inlab","MacIntel",NA,NA,NA,NA
"78",96409,NA,NA,10,492,"","","training","","","",NA,NA,"hexagon","star",2,5,"l",0.451471975000004,NA,"",NA,NA,"inlab","MacIntel",NA,NA,NA,NA
"79",96409,NA,NA,1,493,"","","training","","","",NA,NA,"triangle","star",2,6,"l",0.654357341999912,NA,"",NA,NA,"inlab","MacIntel",NA,NA,NA,NA
"80",96409,NA,NA,10,503,"","","training","","","",NA,NA,"circle","hexagon",2,7,"l",0.751763286999903,NA,"",NA,NA,"inlab","MacIntel",NA,NA,NA,NA
"81",96409,NA,NA,10,513,"","","training","","","",NA,NA,"triangle","hexagon",2,8,"l",1.48542645299995,NA,"",NA,NA,"inlab","MacIntel",NA,NA,NA,NA
"82",96409,NA,NA,1,514,"","","training","","","",NA,NA,"star","hexagon",2,9,"a",1.12471406499981,NA,"",NA,NA,"inlab","MacIntel",NA,NA,NA,NA
"83",96409,NA,NA,1,515,"","","training","","","",NA,NA,"triangle","circle",2,10,"a",0.699716564000028,NA,"",NA,NA,"inlab","MacIntel",NA,NA,NA,NA
"84",96409,NA,NA,10,525,"","","training","","","",NA,NA,"hexagon","circle",2,11,"a",0.563464688999829,NA,"",NA,NA,"inlab","MacIntel",NA,NA,NA,NA
"85",96409,NA,NA,1,526,"","","training","","","",NA,NA,"triangle","circle",2,12,"a",0.552694564999911,NA,"",NA,NA,"inlab","MacIntel",NA,NA,NA,NA
"86",96409,NA,NA,1,527,"","","training","","","",NA,NA,"circle","triangle",2,13,"l",0.471193001999836,NA,"",NA,NA,"inlab","MacIntel",NA,NA,NA,NA
"87",96409,NA,NA,10,537,"","","training","","","",NA,NA,"hexagon","triangle",2,14,"l",0.561044188000324,NA,"",NA,NA,"inlab","MacIntel",NA,NA,NA,NA
"88",96409,NA,NA,10,547,"","","training","","","",NA,NA,"triangle","star",2,15,"a",0.766791112000192,NA,"",NA,NA,"inlab","MacIntel",NA,NA,NA,NA
"89",96409,NA,NA,10,557,"","","training","","","",NA,NA,"circle","hexagon",2,16,"l",0.700769792999836,NA,"",NA,NA,"inlab","MacIntel",NA,NA,NA,NA
"90",96409,NA,NA,1,558,"","","training","","","",NA,NA,"triangle","hexagon",2,17,"l",0.980489460999706,NA,"",NA,NA,"inlab","MacIntel",NA,NA,NA,NA
"91",96409,NA,NA,1,559,"","","training","","","",NA,NA,"circle","star",2,18,"a",0.920599045000017,NA,"",NA,NA,"inlab","MacIntel",NA,NA,NA,NA
"92",96409,NA,NA,1,560,"","","training","","","",NA,NA,"hexagon","star",2,19,"l",0.4326739549997,NA,"",NA,NA,"inlab","MacIntel",NA,NA,NA,NA
"93",96409,NA,NA,10,570,"","","training","","","",NA,NA,"star","triangle",2,20,"a",0.554973928999516,NA,"",NA,NA,"inlab","MacIntel",NA,NA,NA,NA
"94",96409,NA,NA,10,580,"","","training","","","",NA,NA,"star","circle",2,21,"a",0.536542322000059,NA,"",NA,NA,"inlab","MacIntel",NA,NA,NA,NA
"95",96409,NA,NA,1,581,"","","training","","","",NA,NA,"star","hexagon",2,22,"a",0.96729631800008,NA,"",NA,NA,"inlab","MacIntel",NA,NA,NA,NA
"96",96409,NA,NA,10,591,"","","training","","","",NA,NA,"hexagon","circle",2,23,"a",0.740848414000084,NA,"",NA,NA,"inlab","MacIntel",NA,NA,NA,NA
"97",96409,NA,NA,1,592,"","","training","","","",NA,NA,"triangle","star",2,24,"l",0.443522921999829,NA,"",NA,NA,"inlab","MacIntel",NA,NA,NA,NA
"98",96409,NA,NA,1,593,"","","training","","","",NA,NA,"hexagon","star",2,25,"l",0.452912826000102,NA,"",NA,NA,"inlab","MacIntel",NA,NA,NA,NA
"99",96409,NA,NA,10,603,"","","training","","","",NA,NA,"hexagon","triangle",2,26,"a",0.0404168509999181,NA,"",NA,NA,"inlab","MacIntel",NA,NA,NA,NA
"100",96409,NA,NA,1,604,"","","training","","","",NA,NA,"circle","hexagon",2,27,"a",0.250873344999945,NA,"",NA,NA,"inlab","MacIntel",NA,NA,NA,NA
"101",96409,NA,NA,10,614,"","","training","","","",NA,NA,"circle","triangle",2,28,"l",0.140992102999917,NA,"",NA,NA,"inlab","MacIntel",NA,NA,NA,NA
"102",96409,NA,NA,10,624,"","","training","","","",NA,NA,"circle","star",2,29,"a",0.148216692999995,NA,"",NA,NA,"inlab","MacIntel",NA,NA,NA,NA
"103",96409,NA,NA,1,625,"","","training","","","",NA,NA,"triangle","hexagon",2,30,"l",0.0348315789997287,NA,"",NA,NA,"inlab","MacIntel",NA,NA,NA,NA
"104",96409,NA,NA,1,626,"","","training","","","",NA,NA,"star","hexagon",2,31,"a",0.16604164499995,NA,"",NA,NA,"inlab","MacIntel",NA,NA,NA,NA
"105",96409,NA,NA,1,627,"","","training","","","",NA,NA,"star","triangle",2,32,"a",0.13207565499988,NA,"",NA,NA,"inlab","MacIntel",NA,NA,NA,NA
"106",96409,NA,NA,1,628,"","","training","","","",NA,NA,"star","circle",2,33,"a",0.355895777000114,NA,"",NA,NA,"inlab","MacIntel",NA,NA,NA,NA
"107",96409,NA,NA,10,638,"","","training","","","",NA,NA,"triangle","circle",2,34,"a",0.80179153600011,NA,"",NA,NA,"inlab","MacIntel",NA,NA,NA,NA
"108",96409,NA,NA,10,648,"","","training","","","",NA,NA,"hexagon","circle",2,35,"a",0.549664437000047,NA,"",NA,NA,"inlab","MacIntel",NA,NA,NA,NA
"109",96409,-1,0,0,648,"switch","no_choice",NA,"noRew","circle","F",160,0,"","",NA,NA,"",NA,NA,"None",0,NA,"inlab","MacIntel",NA,NA,NA,NA
"110",96409,1,0,0,648,"switch","letter","lettSwt","noRew","hexagon","D",132,0,"","",NA,NA,"",NA,0.621673029999783,"d",1,NA,"inlab","MacIntel",NA,NA,NA,NA
"111",96409,1,0,0,648,"repeat","letter","lettRpt","noRew","star","U",174,0,"","",NA,NA,"",NA,0.750936296999953,"f",2,NA,"inlab","MacIntel",NA,NA,NA,NA
"112",96409,1,0,0,648,"repeat","letter","lettRpt","noRew","triangle","W",181,0,"","",NA,NA,"",NA,1.180104519,"f",3,NA,"inlab","MacIntel",NA,NA,NA,NA
"113",96409,1,0,0,648,"switch","number","numSwt","noRew","triangle","F",160,0,"","",NA,NA,"",NA,1.26286266099987,"k",4,NA,"inlab","MacIntel",NA,NA,NA,NA
"114",96409,1,0,0,648,"repeat","number","numRpt","noRew","star","D",132,0,"","",NA,NA,"",NA,0.750696823999988,"j",5,NA,"inlab","MacIntel",NA,NA,NA,NA
"115",96409,1,0,0,648,"repeat","number","numRpt","noRew","triangle","U",174,0,"","",NA,NA,"",NA,0.803208556999834,"k",6,NA,"inlab","MacIntel",NA,NA,NA,NA
"116",96409,1,0,0,648,"repeat","number","numRpt","noRew","circle","W",181,0,"","",NA,NA,"",NA,0.885128873000212,"k",7,NA,"inlab","MacIntel",NA,NA,NA,NA
"117",96409,1,0,0,648,"repeat","number","numRpt","noRew","star","U",181,0,"","",NA,NA,"",NA,0.811180606000107,"k",8,NA,"inlab","MacIntel",NA,NA,NA,NA
"118",96409,1,0,0,648,"switch","letter","lettSwt","noRew","hexagon","H",139,0,"","",NA,NA,"",NA,1.02886008299993,"d",9,NA,"inlab","MacIntel",NA,NA,NA,NA
"119",96409,1,0,0,648,"repeat","letter","lettRpt","noRew","hexagon","F",167,0,"","",NA,NA,"",NA,0.895379748999858,"d",10,NA,"inlab","MacIntel",NA,NA,NA,NA
"120",96409,1,0,0,648,"repeat","letter","lettRpt","noRew","circle","S",146,0,"","",NA,NA,"",NA,1.74959563499988,"f",11,NA,"inlab","MacIntel",NA,NA,NA,NA
"121",96409,0,0,0,648,"switch","number",NA,"noRew","triangle","F",125,0,"","",NA,NA,"",NA,2.52140686200028,"k",12,NA,"inlab","MacIntel",NA,NA,NA,NA
"122",96409,1,1,0,648,"repeat","number","numRpt","noRew","star","U",167,0,"","",NA,NA,"",NA,1.22041452099984,"k",13,NA,"inlab","MacIntel",NA,NA,NA,NA
"123",96409,1,0,0,648,"repeat","number","numRpt","noRew","hexagon","S",139,0,"","",NA,NA,"",NA,1.16564659999995,"j",14,NA,"inlab","MacIntel",NA,NA,NA,NA
"124",96409,1,0,0,648,"repeat","number","numRpt","noRew","star","W",132,0,"","",NA,NA,"",NA,0.705013599000267,"j",15,NA,"inlab","MacIntel",NA,NA,NA,NA
"125",96409,1,0,0,648,"switch","letter","lettSwt","noRew","star","D",160,0,"","",NA,NA,"",NA,0.951172581000264,"d",16,NA,"inlab","MacIntel",NA,NA,NA,NA
"126",96409,1,0,0,648,"repeat","letter","lettRpt","noRew","hexagon","Y",167,0,"","",NA,NA,"",NA,0.547901739999816,"f",17,NA,"inlab","MacIntel",NA,NA,NA,NA
"127",96409,1,0,0,648,"switch","number","numSwt","noRew","hexagon","B",146,0,"","",NA,NA,"",NA,2.26519215300004,"j",18,NA,"inlab","MacIntel",NA,NA,NA,NA
"128",96409,1,0,0,648,"repeat","number","numRpt","noRew","circle","S",132,0,"","",NA,NA,"",NA,1.15832283999953,"j",19,NA,"inlab","MacIntel",NA,NA,NA,NA
"129",96409,1,0,0,648,"switch","letter","lettSwt","noRew","triangle","Y",139,0,"","",NA,NA,"",NA,1.13915087699979,"f",20,NA,"inlab","MacIntel",NA,NA,NA,NA
"130",96409,1,0,0,648,"repeat","letter","lettRpt","noRew","star","F",174,0,"","",NA,NA,"",NA,1.19033133799985,"d",21,NA,"inlab","MacIntel",NA,NA,NA,NA
"131",96409,1,0,0,648,"repeat","letter","lettRpt","noRew","circle","B",181,0,"","",NA,NA,"",NA,0.857635443000163,"d",22,NA,"inlab","MacIntel",NA,NA,NA,NA
"132",96409,1,0,0,648,"repeat","letter","lettRpt","noRew","star","D",146,0,"","",NA,NA,"",NA,0.593817392999881,"d",23,NA,"inlab","MacIntel",NA,NA,NA,NA
"133",96409,1,0,0,648,"switch","number","numSwt","noRew","star","S",167,0,"","",NA,NA,"",NA,0.947759739000048,"k",24,NA,"inlab","MacIntel",NA,NA,NA,NA
"134",96409,1,0,0,648,"repeat","number","numRpt","noRew","hexagon","Y",125,0,"","",NA,NA,"",NA,0.656667051000113,"j",25,NA,"inlab","MacIntel",NA,NA,NA,NA
"135",96409,1,0,0,648,"repeat","number","numRpt","noRew","hexagon","H",132,0,"","",NA,NA,"",NA,1.62479489099997,"j",26,NA,"inlab","MacIntel",NA,NA,NA,NA
"136",96409,1,0,0,648,"switch","letter","lettSwt","noRew","star","B",160,0,"","",NA,NA,"",NA,0.640926909999962,"d",27,NA,"inlab","MacIntel",NA,NA,NA,NA
"137",96409,1,0,0,648,"repeat","letter","lettRpt","noRew","circle","S",174,0,"","",NA,NA,"",NA,0.690733375999571,"f",28,NA,"inlab","MacIntel",NA,NA,NA,NA
"138",96409,1,0,0,648,"repeat","letter","lettRpt","noRew","hexagon","H",167,0,"","",NA,NA,"",NA,1.21745746800025,"d",29,NA,"inlab","MacIntel",NA,NA,NA,NA
"139",96409,1,0,0,648,"switch","number","numSwt","noRew","star","Y",125,0,"","",NA,NA,"",NA,2.07461288600007,"j",30,NA,"inlab","MacIntel",NA,NA,NA,NA
"140",96409,1,0,0,648,"repeat","number","numRpt","noRew","hexagon","F",181,0,"","",NA,NA,"",NA,1.13561293399971,"k",31,NA,"inlab","MacIntel",NA,NA,NA,NA
"141",96409,1,0,0,648,"repeat","number","numRpt","noRew","circle","S",125,0,"","",NA,NA,"",NA,0.820376053000018,"j",32,NA,"inlab","MacIntel",NA,NA,NA,NA
"142",96409,1,0,0,648,"repeat","number","numRpt","noRew","hexagon","Y",174,0,"","",NA,NA,"",NA,0.893689957999868,"k",33,NA,"inlab","MacIntel",NA,NA,NA,NA
"143",96409,1,0,0,648,"switch","letter","lettSwt","noRew","hexagon","U",132,0,"","",NA,NA,"",NA,1.82913671400001,"f",34,NA,"inlab","MacIntel",NA,NA,NA,NA
"144",96409,1,0,0,648,"repeat","letter","lettRpt","noRew","triangle","W",146,0,"","",NA,NA,"",NA,1.8603498589996,"f",35,NA,"inlab","MacIntel",NA,NA,NA,NA
"145",96409,1,0,0,648,"repeat","letter","lettRpt","noRew","hexagon","B",181,0,"","",NA,NA,"",NA,0.756042426000022,"d",36,NA,"inlab","MacIntel",NA,NA,NA,NA
"146",96409,1,0,0,648,"switch","number","numSwt","noRew","star","F",167,0,"","",NA,NA,"",NA,1.1360388789999,"k",37,NA,"inlab","MacIntel",NA,NA,NA,NA
"147",96409,1,0,0,648,"repeat","number","numRpt","noRew","hexagon","D",139,0,"","",NA,NA,"",NA,0.748144058999969,"j",38,NA,"inlab","MacIntel",NA,NA,NA,NA
"148",96409,1,0,0,648,"repeat","number","numRpt","noRew","star","Y",174,0,"","",NA,NA,"",NA,0.713693171999694,"k",39,NA,"inlab","MacIntel",NA,NA,NA,NA
"149",96409,1,0,0,648,"switch","letter","lettSwt","noRew","triangle","H",174,0,"","",NA,NA,"",NA,1.86300562199995,"d",40,NA,"inlab","MacIntel",NA,NA,NA,NA
"150",96409,1,0,0,648,"switch","number","numSwt","noRew","star","W",167,0,"","",NA,NA,"",NA,1.26164699999981,"k",41,NA,"inlab","MacIntel",NA,NA,NA,NA
"151",96409,1,0,0,648,"switch","letter","lettSwt","noRew","hexagon","B",160,0,"","",NA,NA,"",NA,1.29382392600019,"d",42,NA,"inlab","MacIntel",NA,NA,NA,NA
"152",96409,1,0,0,648,"switch","number","numSwt","noRew","triangle","U",146,0,"","",NA,NA,"",NA,2.2846439570003,"j",43,NA,"inlab","MacIntel",NA,NA,NA,NA
"153",96409,1,0,0,648,"switch","letter","lettSwt","noRew","circle","Y",167,0,"","",NA,NA,"",NA,2.71308525399991,"f",44,NA,"inlab","MacIntel",NA,NA,NA,NA
"154",96409,1,0,0,648,"repeat","letter","lettRpt","noRew","hexagon","B",160,0,"","",NA,NA,"",NA,0.741241542000353,"d",45,NA,"inlab","MacIntel",NA,NA,NA,NA
"155",96409,1,0,0,648,"repeat","letter","lettRpt","noRew","star","D",181,0,"","",NA,NA,"",NA,1.33701432699991,"d",46,NA,"inlab","MacIntel",NA,NA,NA,NA
"156",96409,1,0,0,648,"switch","number","numSwt","noRew","hexagon","U",125,0,"","",NA,NA,"",NA,0.629486062999604,"j",47,NA,"inlab","MacIntel",NA,NA,NA,NA
"157",96409,1,0,0,648,"repeat","number","numRpt","noRew","hexagon","D",125,0,"","",NA,NA,"",NA,0.69471159800014,"j",48,NA,"inlab","MacIntel",NA,NA,NA,NA
"158",96409,1,0,0,648,"repeat","number","numRpt","noRew","circle","S",160,0,"","",NA,NA,"",NA,1.7586470629999,"k",49,NA,"inlab","MacIntel",NA,NA,NA,NA
"159",96409,1,0,0,648,"switch","letter","lettSwt","noRew","hexagon","F",181,0,"","",NA,NA,"",NA,0.849551768999845,"d",50,NA,"inlab","MacIntel",NA,NA,NA,NA
"160",96409,0,0,0,648,"repeat","letter",NA,"noRew","circle","H",132,0,"","",NA,NA,"",NA,2.61828689999993,"f",51,NA,"inlab","MacIntel",NA,NA,NA,NA
"161",96409,1,1,0,648,"repeat","letter","lettRpt","noRew","hexagon","F",146,0,"","",NA,NA,"",NA,0.585160971000278,"d",52,NA,"inlab","MacIntel",NA,NA,NA,NA
"162",96409,1,0,0,648,"switch","number","numSwt","noRew","star","Y",160,0,"","",NA,NA,"",NA,1.41235951399995,"k",53,NA,"inlab","MacIntel",NA,NA,NA,NA
"163",96409,1,0,0,648,"repeat","number","numRpt","noRew","star","W",174,0,"","",NA,NA,"",NA,1.25375617999998,"k",54,NA,"inlab","MacIntel",NA,NA,NA,NA
"164",96409,1,0,0,648,"repeat","number","numRpt","noRew","triangle","D",181,0,"","",NA,NA,"",NA,0.734091786000135,"k",55,NA,"inlab","MacIntel",NA,NA,NA,NA
"165",96409,1,0,0,648,"switch","letter","lettSwt","noRew","triangle","W",146,0,"","",NA,NA,"",NA,1.07468229999995,"f",56,NA,"inlab","MacIntel",NA,NA,NA,NA
"166",96409,1,0,0,648,"repeat","letter","lettRpt","noRew","hexagon","B",174,0,"","",NA,NA,"",NA,0.561927116999868,"d",57,NA,"inlab","MacIntel",NA,NA,NA,NA
"167",96409,1,0,0,648,"repeat","letter","lettRpt","noRew","circle","S",160,0,"","",NA,NA,"",NA,1.64652805700007,"f",58,NA,"inlab","MacIntel",NA,NA,NA,NA
"168",96409,1,0,0,648,"switch","number","numSwt","noRew","triangle","H",125,0,"","",NA,NA,"",NA,0.999059080999814,"j",59,NA,"inlab","MacIntel",NA,NA,NA,NA
"169",96409,1,0,0,648,"repeat","number","numRpt","noRew","circle","Y",139,0,"","",NA,NA,"",NA,1.3924055020002,"j",60,NA,"inlab","MacIntel",NA,NA,NA,NA
"170",96409,1,0,0,648,"repeat","number","numRpt","noRew","hexagon","W",160,0,"","",NA,NA,"",NA,1.59510245999991,"k",61,NA,"inlab","MacIntel",NA,NA,NA,NA
"171",96409,1,0,0,648,"switch","letter","lettSwt","noRew","circle","D",167,0,"","",NA,NA,"",NA,1.18856452499995,"d",62,NA,"inlab","MacIntel",NA,NA,NA,NA
"172",96409,1,0,0,648,"repeat","letter","lettRpt","noRew","triangle","B",174,0,"","",NA,NA,"",NA,1.65415775599968,"d",63,NA,"inlab","MacIntel",NA,NA,NA,NA
"173",96409,1,0,0,648,"repeat","letter","lettRpt","noRew","triangle","W",174,0,"","",NA,NA,"",NA,2.2217021649999,"f",NA,0,"inlab","MacIntel",NA,NA,NA,NA
"174",96409,1,0,10,658,"repeat","letter","lettRpt","noRew","star","B",146,0,"","",NA,NA,"",NA,0.590340566999657,"d",NA,1,"inlab","MacIntel",NA,NA,NA,NA
"175",96409,1,0,1,659,"repeat","letter","lettRpt","noRew","star","F",132,0,"","",NA,NA,"",NA,0.768261537999933,"d",NA,2,"inlab","MacIntel",NA,NA,NA,NA
"176",96409,1,0,10,669,"switch","number","numSwt","noRew","triangle","Y",160,0,"","",NA,NA,"",NA,0.612226091000139,"k",NA,3,"inlab","MacIntel",NA,NA,NA,NA
"177",96409,1,0,1,670,"repeat","number","numRpt","noRew","triangle","S",181,0,"","",NA,NA,"",NA,0.758311260000028,"k",NA,4,"inlab","MacIntel",NA,NA,NA,NA
"178",96409,1,0,10,680,"repeat","number","numRpt","noRew","star","H",167,0,"","",NA,NA,"",NA,1.17881272799968,"k",NA,5,"inlab","MacIntel",NA,NA,NA,NA
"179",96409,1,0,1,681,"repeat","number","numRpt","noRew","star","U",125,0,"","",NA,NA,"",NA,0.725543278999794,"j",NA,6,"inlab","MacIntel",NA,NA,NA,NA
"180",96409,1,0,0,681,"repeat","number","numRpt","noRew","triangle","D",139,0,"","",NA,NA,"",NA,1.33802841500028,"j",NA,7,"inlab","MacIntel",NA,NA,NA,NA
"181",96409,1,0,1,682,"switch","letter","lettSwt","noRew","triangle","W",174,0,"","",NA,NA,"",NA,0.710492180999609,"f",NA,8,"inlab","MacIntel",NA,NA,NA,NA
"182",96409,1,0,1,683,"repeat","letter","lettRpt","noRew","star","B",146,0,"","",NA,NA,"",NA,0.652477030999762,"d",NA,9,"inlab","MacIntel",NA,NA,NA,NA
"183",96409,1,0,10,693,"repeat","letter","lettRpt","noRew","star","F",132,0,"","",NA,NA,"",NA,1.23720860699996,"d",NA,10,"inlab","MacIntel",NA,NA,NA,NA
"184",96409,1,0,0,693,"repeat","letter","lettRpt","noRew","triangle","Y",160,0,"","",NA,NA,"",NA,1.22891816599986,"f",NA,11,"inlab","MacIntel",NA,NA,NA,NA
"185",96409,1,0,1,694,"switch","number","numSwt","noRew","star","S",181,0,"","",NA,NA,"",NA,1.44544912299989,"k",NA,12,"inlab","MacIntel",NA,NA,NA,NA
"186",96409,1,0,0,694,"repeat","number","numRpt","noRew","triangle","H",167,0,"","",NA,NA,"",NA,1.02218774699986,"k",NA,13,"inlab","MacIntel",NA,NA,NA,NA
"187",96409,1,0,0,694,"repeat","number","numRpt","noRew","triangle","U",125,0,"","",NA,NA,"",NA,0.88743348700018,"j",NA,14,"inlab","MacIntel",NA,NA,NA,NA
"188",96409,1,0,10,704,"switch","letter","lettSwt","noRew","star","D",139,0,"","",NA,NA,"",NA,0.702055101000042,"d",NA,15,"inlab","MacIntel",NA,NA,NA,NA
"189",96409,1,0,1,705,"switch","number","numSwt","noRew","star","B",181,0,"","",NA,NA,"",NA,0.611749249999775,"k",NA,16,"inlab","MacIntel",NA,NA,NA,NA
"190",96409,1,0,0,705,"repeat","number","numRpt","noRew","triangle","H",146,0,"","",NA,NA,"",NA,1.24657776799995,"j",NA,17,"inlab","MacIntel",NA,NA,NA,NA
"191",96409,1,0,10,715,"repeat","number","numRpt","noRew","triangle","W",160,0,"","",NA,NA,"",NA,0.726045736999822,"k",NA,18,"inlab","MacIntel",NA,NA,NA,NA
"192",96409,0,0,0,715,"switch","letter",NA,"noRew","star","S",139,0,"","",NA,NA,"",NA,0.379354008999599,"d",NA,19,"inlab","MacIntel",NA,NA,NA,NA
"193",96409,1,1,1,716,"repeat","letter","lettRpt","noRew","star","D",132,0,"","",NA,NA,"",NA,0.584113504000015,"d",NA,20,"inlab","MacIntel",NA,NA,NA,NA
"194",96409,1,0,10,726,"repeat","letter","lettRpt","noRew","triangle","F",174,0,"","",NA,NA,"",NA,0.691520115999992,"d",NA,21,"inlab","MacIntel",NA,NA,NA,NA
"195",96409,1,0,1,727,"repeat","letter","lettRpt","noRew","star","U",125,0,"","",NA,NA,"",NA,0.938520071999847,"f",NA,22,"inlab","MacIntel",NA,NA,NA,NA
"196",96409,1,0,1,728,"repeat","letter","lettRpt","noRew","triangle","Y",167,0,"","",NA,NA,"",NA,0.630750491999606,"f",NA,23,"inlab","MacIntel",NA,NA,NA,NA
"197",96409,1,0,1,729,"switch","number","numSwt","noRew","triangle","U",146,0,"","",NA,NA,"",NA,0.71211924499994,"j",NA,24,"inlab","MacIntel",NA,NA,NA,NA
"198",96409,1,0,10,739,"repeat","number","numRpt","noRew","star","W",139,0,"","",NA,NA,"",NA,1.26184890599961,"j",NA,25,"inlab","MacIntel",NA,NA,NA,NA
"199",96409,1,0,1,740,"repeat","number","numRpt","noRew","triangle","H",174,0,"","",NA,NA,"",NA,0.613162015999933,"k",NA,26,"inlab","MacIntel",NA,NA,NA,NA
"200",96409,1,0,1,741,"repeat","number","numRpt","noRew","star","Y",160,0,"","",NA,NA,"",NA,0.768595472000015,"k",NA,27,"inlab","MacIntel",NA,NA,NA,NA
"201",96409,1,0,0,741,"repeat","number","numRpt","noRew","triangle","F",125,0,"","",NA,NA,"",NA,1.29163194900002,"j",NA,28,"inlab","MacIntel",NA,NA,NA,NA
"202",96409,1,0,1,742,"repeat","number","numRpt","noRew","star","B",181,0,"","",NA,NA,"",NA,0.897026247999747,"k",NA,29,"inlab","MacIntel",NA,NA,NA,NA
"203",96409,1,0,0,742,"switch","letter","lettSwt","noRew","triangle","S",167,0,"","",NA,NA,"",NA,1.60867407500018,"f",NA,30,"inlab","MacIntel",NA,NA,NA,NA
"204",96409,1,0,1,743,"repeat","letter","lettRpt","noRew","star","D",132,0,"","",NA,NA,"",NA,0.513554463999753,"d",NA,31,"inlab","MacIntel",NA,NA,NA,NA
"205",96409,0,0,0,743,"repeat","letter",NA,"noRew","hexagon","S",160,1,"","",NA,NA,"",NA,0.668487192000157,"d",NA,0,"inlab","MacIntel",NA,NA,NA,NA
"206",96409,1,1,1,744,"repeat","letter","lettRpt","noRew","circle","D",181,1,"","",NA,NA,"",NA,1.30112860200006,"d",NA,1,"inlab","MacIntel",NA,NA,NA,NA
"207",96409,1,0,1,745,"repeat","letter","lettRpt","noRew","circle","F",132,1,"","",NA,NA,"",NA,0.571248923999974,"d",NA,2,"inlab","MacIntel",NA,NA,NA,NA
"208",96409,1,0,10,755,"repeat","letter","lettRpt","noRew","hexagon","U",125,1,"","",NA,NA,"",NA,0.542512437999903,"f",NA,3,"inlab","MacIntel",NA,NA,NA,NA
"209",96409,1,0,0,755,"switch","number","numSwt","noRew","hexagon","H",167,1,"","",NA,NA,"",NA,1.00245314599988,"k",NA,4,"inlab","MacIntel",NA,NA,NA,NA
"210",96409,1,0,1,756,"repeat","number","numRpt","noRew","circle","W",146,1,"","",NA,NA,"",NA,0.628824951999832,"j",NA,5,"inlab","MacIntel",NA,NA,NA,NA
"211",96409,1,0,1,757,"repeat","number","numRpt","noRew","hexagon","Y",174,1,"","",NA,NA,"",NA,0.70176464899987,"k",NA,6,"inlab","MacIntel",NA,NA,NA,NA
"212",96409,1,0,10,767,"switch","letter","lettSwt","noRew","circle","B",139,1,"","",NA,NA,"",NA,0.797374551999837,"d",NA,7,"inlab","MacIntel",NA,NA,NA,NA
"213",96409,1,0,10,777,"repeat","letter","lettRpt","noRew","hexagon","S",160,1,"","",NA,NA,"",NA,0.583596146999753,"f",NA,8,"inlab","MacIntel",NA,NA,NA,NA
"214",96409,1,0,1,778,"repeat","letter","lettRpt","noRew","circle","D",181,1,"","",NA,NA,"",NA,0.555605736999951,"d",NA,9,"inlab","MacIntel",NA,NA,NA,NA
"215",96409,1,0,0,778,"switch","number","numSwt","noRew","hexagon","F",132,1,"","",NA,NA,"",NA,0.710803848000069,"j",NA,10,"inlab","MacIntel",NA,NA,NA,NA
"216",96409,1,0,1,779,"repeat","number","numRpt","noRew","circle","U",125,1,"","",NA,NA,"",NA,0.54149893199974,"j",NA,11,"inlab","MacIntel",NA,NA,NA,NA
"217",96409,1,0,10,789,"repeat","number","numRpt","noRew","hexagon","H",167,1,"","",NA,NA,"",NA,0.473921355999664,"k",NA,12,"inlab","MacIntel",NA,NA,NA,NA
"218",96409,1,0,1,790,"switch","letter","lettSwt","noRew","circle","W",146,1,"","",NA,NA,"",NA,0.825932275000014,"f",NA,13,"inlab","MacIntel",NA,NA,NA,NA
"219",96409,1,0,1,791,"repeat","letter","lettRpt","noRew","circle","Y",174,1,"","",NA,NA,"",NA,0.74692063700013,"f",NA,14,"inlab","MacIntel",NA,NA,NA,NA
"220",96409,1,0,0,791,"repeat","letter","lettRpt","noRew","hexagon","B",139,1,"","",NA,NA,"",NA,0.791570926000077,"d",NA,15,"inlab","MacIntel",NA,NA,NA,NA
"221",96409,1,0,1,792,"repeat","letter","lettRpt","noRew","circle","U",181,1,"","",NA,NA,"",NA,1.40277546299967,"f",NA,16,"inlab","MacIntel",NA,NA,NA,NA
"222",96409,1,0,0,792,"repeat","letter","lettRpt","noRew","hexagon","D",146,1,"","",NA,NA,"",NA,1.1800444710002,"d",NA,17,"inlab","MacIntel",NA,NA,NA,NA
"223",96409,1,0,1,793,"repeat","letter","lettRpt","noRew","circle","W",132,1,"","",NA,NA,"",NA,0.767312124,"f",NA,18,"inlab","MacIntel",NA,NA,NA,NA
"224",96409,1,0,0,793,"switch","number","numSwt","noRew","hexagon","Y",174,1,"","",NA,NA,"",NA,0.763525669000046,"k",NA,19,"inlab","MacIntel",NA,NA,NA,NA
"225",96409,1,0,0,793,"repeat","number","numRpt","noRew","hexagon","B",167,1,"","",NA,NA,"",NA,0.800139677000061,"k",NA,20,"inlab","MacIntel",NA,NA,NA,NA
"226",96409,1,0,1,794,"repeat","number","numRpt","noRew","circle","H",125,1,"","",NA,NA,"",NA,1.09031185000003,"j",NA,21,"inlab","MacIntel",NA,NA,NA,NA
"227",96409,0,0,0,794,"repeat","number",NA,"noRew","hexagon","F",139,1,"","",NA,NA,"",NA,0.183776898999895,"k",NA,22,"inlab","MacIntel",NA,NA,NA,NA
"228",96409,0,1,0,794,"repeat","number",NA,"noRew","circle","S",160,1,"","",NA,NA,"",NA,1.2124377099999,"j",NA,23,"inlab","MacIntel",NA,NA,NA,NA
"229",96409,1,1,0,794,"repeat","number","numRpt","noRew","hexagon","F",146,1,"","",NA,NA,"",NA,1.08564055200031,"j",NA,24,"inlab","MacIntel",NA,NA,NA,NA
"230",96409,1,0,1,795,"repeat","number","numRpt","noRew","circle","B",167,1,"","",NA,NA,"",NA,0.651477945999886,"k",NA,25,"inlab","MacIntel",NA,NA,NA,NA
"231",96409,1,0,0,795,"switch","letter","lettSwt","noRew","hexagon","U",132,1,"","",NA,NA,"",NA,1.06780468499983,"f",NA,26,"inlab","MacIntel",NA,NA,NA,NA
"232",96409,1,0,1,796,"repeat","letter","lettRpt","noRew","circle","Y",125,1,"","",NA,NA,"",NA,0.668457993999709,"f",NA,27,"inlab","MacIntel",NA,NA,NA,NA
"233",96409,1,0,0,796,"repeat","letter","lettRpt","noRew","hexagon","W",174,1,"","",NA,NA,"",NA,0.867755652000142,"f",NA,28,"inlab","MacIntel",NA,NA,NA,NA
"234",96409,1,0,1,797,"repeat","letter","lettRpt","noRew","circle","H",139,1,"","",NA,NA,"",NA,0.795538725999904,"d",NA,29,"inlab","MacIntel",NA,NA,NA,NA
"235",96409,1,0,0,797,"repeat","letter","lettRpt","noRew","hexagon","D",160,1,"","",NA,NA,"",NA,1.1571112470001,"d",NA,30,"inlab","MacIntel",NA,NA,NA,NA
"236",96409,1,0,10,807,"repeat","letter","lettRpt","noRew","circle","S",181,1,"","",NA,NA,"",NA,0.608921086999999,"f",NA,31,"inlab","MacIntel",NA,NA,NA,NA
"237",96409,1,0,10,817,"repeat","letter","lettRpt","noRew","hexagon","D",160,2,"","",NA,NA,"",NA,0.627019019999807,"d",NA,0,"inlab","MacIntel",NA,NA,NA,NA
"238",96409,1,0,10,827,"repeat","letter","lettRpt","noRew","circle","B",125,2,"","",NA,NA,"",NA,0.795595265999964,"d",NA,1,"inlab","MacIntel",NA,NA,NA,NA
"239",96409,1,0,10,837,"repeat","letter","lettRpt","noRew","circle","S",139,2,"","",NA,NA,"",NA,0.807540537000023,"f",NA,2,"inlab","MacIntel",NA,NA,NA,NA
"240",96409,1,0,0,837,"switch","number","numSwt","noRew","hexagon","U",146,2,"","",NA,NA,"",NA,0.897036173999822,"j",NA,3,"inlab","MacIntel",NA,NA,NA,NA
"241",96409,1,0,0,837,"repeat","number","numRpt","noRew","hexagon","F",132,2,"","",NA,NA,"",NA,1.05564243500021,"j",NA,4,"inlab","MacIntel",NA,NA,NA,NA
"242",96409,1,0,1,838,"repeat","number","numRpt","noRew","circle","H",181,2,"","",NA,NA,"",NA,0.846873021999727,"k",NA,5,"inlab","MacIntel",NA,NA,NA,NA
"243",96409,1,0,1,839,"repeat","number","numRpt","noRew","circle","W",167,2,"","",NA,NA,"",NA,1.1762620290001,"k",NA,6,"inlab","MacIntel",NA,NA,NA,NA
"244",96409,1,0,0,839,"switch","letter","lettSwt","noRew","hexagon","Y",174,2,"","",NA,NA,"",NA,0.842497939999703,"f",NA,7,"inlab","MacIntel",NA,NA,NA,NA
"245",96409,1,0,0,839,"repeat","letter","lettRpt","noRew","hexagon","D",160,2,"","",NA,NA,"",NA,0.763512918000288,"d",NA,8,"inlab","MacIntel",NA,NA,NA,NA
"246",96409,1,0,1,840,"repeat","letter","lettRpt","noRew","circle","B",125,2,"","",NA,NA,"",NA,1.05593519099966,"d",NA,9,"inlab","MacIntel",NA,NA,NA,NA
"247",96409,1,0,0,840,"repeat","letter","lettRpt","noRew","hexagon","S",139,2,"","",NA,NA,"",NA,0.823537925999972,"f",NA,10,"inlab","MacIntel",NA,NA,NA,NA
"248",96409,1,0,10,850,"switch","number","numSwt","noRew","circle","U",146,2,"","",NA,NA,"",NA,1.10518750399979,"j",NA,11,"inlab","MacIntel",NA,NA,NA,NA
"249",96409,1,0,1,851,"repeat","number","numRpt","noRew","circle","F",132,2,"","",NA,NA,"",NA,0.726548278999871,"j",NA,12,"inlab","MacIntel",NA,NA,NA,NA
"250",96409,1,0,0,851,"repeat","number","numRpt","noRew","hexagon","H",181,2,"","",NA,NA,"",NA,0.811903633999918,"k",NA,13,"inlab","MacIntel",NA,NA,NA,NA
"251",96409,1,0,1,852,"switch","letter","lettSwt","noRew","circle","W",167,2,"","",NA,NA,"",NA,1.2528413150003,"f",NA,14,"inlab","MacIntel",NA,NA,NA,NA
"252",96409,1,0,0,852,"repeat","letter","lettRpt","noRew","hexagon","Y",174,2,"","",NA,NA,"",NA,1.08550689899994,"f",NA,15,"inlab","MacIntel",NA,NA,NA,NA
"253",96409,1,0,0,852,"repeat","letter","lettRpt","noRew","hexagon","U",146,2,"","",NA,NA,"",NA,0.986838299999818,"f",NA,16,"inlab","MacIntel",NA,NA,NA,NA
"254",96409,1,0,1,853,"switch","number","numSwt","noRew","circle","S",125,2,"","",NA,NA,"",NA,0.782981460999963,"j",NA,17,"inlab","MacIntel",NA,NA,NA,NA
"255",96409,1,0,1,854,"repeat","number","numRpt","noRew","circle","W",132,2,"","",NA,NA,"",NA,0.736987178999698,"j",NA,18,"inlab","MacIntel",NA,NA,NA,NA
"256",96409,1,0,0,854,"repeat","number","numRpt","noRew","hexagon","Y",139,2,"","",NA,NA,"",NA,0.758760522999637,"j",NA,19,"inlab","MacIntel",NA,NA,NA,NA
"257",96409,1,0,1,855,"repeat","number","numRpt","noRew","circle","D",181,2,"","",NA,NA,"",NA,0.802769843999613,"k",NA,20,"inlab","MacIntel",NA,NA,NA,NA
"258",96409,1,0,0,855,"switch","letter","lettSwt","noRew","hexagon","F",160,2,"","",NA,NA,"",NA,1.76431194700035,"d",NA,21,"inlab","MacIntel",NA,NA,NA,NA
"259",96409,1,0,0,855,"repeat","letter","lettRpt","noRew","hexagon","B",167,2,"","",NA,NA,"",NA,1.35169157000018,"d",NA,22,"inlab","MacIntel",NA,NA,NA,NA
"260",96409,1,0,10,865,"repeat","letter","lettRpt","noRew","circle","H",174,2,"","",NA,NA,"",NA,0.91641785999991,"d",NA,23,"inlab","MacIntel",NA,NA,NA,NA
"261",96409,1,0,1,866,"repeat","letter","lettRpt","noRew","circle","D",167,2,"","",NA,NA,"",NA,0.977162008999585,"d",NA,24,"inlab","MacIntel",NA,NA,NA,NA
"262",96409,0,0,0,866,"repeat","letter",NA,"noRew","hexagon","F",146,2,"","",NA,NA,"",NA,0.820316412000011,"f",NA,25,"inlab","MacIntel",NA,NA,NA,NA
"263",96409,1,1,0,866,"repeat","letter","lettRpt","noRew","hexagon","W",132,2,"","",NA,NA,"",NA,0.734441933999733,"f",NA,26,"inlab","MacIntel",NA,NA,NA,NA
"264",96409,1,0,10,876,"repeat","letter","lettRpt","noRew","circle","Y",139,2,"","",NA,NA,"",NA,0.747542236999834,"f",NA,27,"inlab","MacIntel",NA,NA,NA,NA
"265",96409,1,0,1,877,"switch","number","numSwt","noRew","circle","S",181,2,"","",NA,NA,"",NA,1.44805418999977,"k",NA,28,"inlab","MacIntel",NA,NA,NA,NA
"266",96409,1,0,0,877,"repeat","number","numRpt","noRew","hexagon","U",160,2,"","",NA,NA,"",NA,0.800530790000266,"k",NA,29,"inlab","MacIntel",NA,NA,NA,NA
"267",96409,1,0,1,878,"repeat","number","numRpt","noRew","circle","B",125,2,"","",NA,NA,"",NA,1.33064715299997,"j",NA,30,"inlab","MacIntel",NA,NA,NA,NA
"268",96409,0,0,0,878,"repeat","number",NA,"noRew","hexagon","H",174,2,"","",NA,NA,"",NA,0.784145924999848,"j",NA,31,"inlab","MacIntel",NA,NA,NA,NA
"269",96409,1,1,0,878,"switch","letter","lettSwt","noRew","hexagon","S",139,3,"","",NA,NA,"",NA,1.42344026499995,"f",NA,0,"inlab","MacIntel",NA,NA,NA,NA
"270",96409,1,0,1,879,"repeat","letter","lettRpt","noRew","circle","U",132,3,"","",NA,NA,"",NA,0.926864927000224,"f",NA,1,"inlab","MacIntel",NA,NA,NA,NA
"271",96409,0,0,0,879,"repeat","letter",NA,"noRew","hexagon","H",146,3,"","",NA,NA,"",NA,1.03660806000016,"f",NA,2,"inlab","MacIntel",NA,NA,NA,NA
"272",96409,1,1,1,880,"repeat","letter","lettRpt","noRew","circle","W",167,3,"","",NA,NA,"",NA,1.06161420199987,"f",NA,3,"inlab","MacIntel",NA,NA,NA,NA
"273",96409,1,0,10,890,"switch","number","numSwt","noRew","hexagon","B",125,3,"","",NA,NA,"",NA,0.860416396999881,"j",NA,4,"inlab","MacIntel",NA,NA,NA,NA
"274",96409,1,0,1,891,"repeat","number","numRpt","noRew","circle","D",160,3,"","",NA,NA,"",NA,1.01995383600024,"k",NA,5,"inlab","MacIntel",NA,NA,NA,NA
"275",96409,1,0,1,892,"repeat","number","numRpt","noRew","circle","Y",174,3,"","",NA,NA,"",NA,0.798180383999807,"k",NA,6,"inlab","MacIntel",NA,NA,NA,NA
"276",96409,1,0,0,892,"repeat","number","numRpt","noRew","hexagon","F",181,3,"","",NA,NA,"",NA,0.920946134999667,"k",NA,7,"inlab","MacIntel",NA,NA,NA,NA
"277",96409,1,0,0,892,"switch","letter","lettSwt","noRew","hexagon","S",139,3,"","",NA,NA,"",NA,1.17431425199993,"f",NA,8,"inlab","MacIntel",NA,NA,NA,NA
"278",96409,1,0,10,902,"repeat","letter","lettRpt","noRew","circle","U",132,3,"","",NA,NA,"",NA,0.768713828000273,"f",NA,9,"inlab","MacIntel",NA,NA,NA,NA
"279",96409,1,0,1,903,"repeat","letter","lettRpt","noRew","circle","H",146,3,"","",NA,NA,"",NA,0.835546187000091,"d",NA,10,"inlab","MacIntel",NA,NA,NA,NA
"280",96409,0,0,0,903,"switch","number",NA,"noRew","hexagon","W",167,3,"","",NA,NA,"",NA,1.23609004699983,"j",NA,11,"inlab","MacIntel",NA,NA,NA,NA
"281",96409,1,1,1,904,"repeat","number","numRpt","noRew","circle","B",125,3,"","",NA,NA,"",NA,1.004385404,"j",NA,12,"inlab","MacIntel",NA,NA,NA,NA
"282",96409,1,0,0,904,"repeat","number","numRpt","noRew","hexagon","D",160,3,"","",NA,NA,"",NA,1.101790919,"k",NA,13,"inlab","MacIntel",NA,NA,NA,NA
"283",96409,1,0,10,914,"switch","letter","lettSwt","noRew","circle","Y",174,3,"","",NA,NA,"",NA,0.763093865999963,"f",NA,14,"inlab","MacIntel",NA,NA,NA,NA
"284",96409,1,0,0,914,"repeat","letter","lettRpt","noRew","hexagon","F",181,3,"","",NA,NA,"",NA,1.41628124700037,"d",NA,15,"inlab","MacIntel",NA,NA,NA,NA
"285",96409,1,0,1,915,"switch","number","numSwt","noRew","circle","H",146,3,"","",NA,NA,"",NA,0.801279362000059,"j",NA,16,"inlab","MacIntel",NA,NA,NA,NA
"286",96409,1,0,10,925,"switch","letter","lettSwt","noRew","hexagon","S",139,3,"","",NA,NA,"",NA,0.940212171999974,"f",NA,17,"inlab","MacIntel",NA,NA,NA,NA
"287",96409,1,0,1,926,"switch","number","numSwt","noRew","circle","Y",160,3,"","",NA,NA,"",NA,1.23203822200003,"k",NA,18,"inlab","MacIntel",NA,NA,NA,NA
"288",96409,1,0,10,936,"switch","letter","lettSwt","noRew","hexagon","B",167,3,"","",NA,NA,"",NA,0.936636803000056,"d",NA,19,"inlab","MacIntel",NA,NA,NA,NA
"289",96409,1,0,1,937,"repeat","letter","lettRpt","noRew","circle","U",181,3,"","",NA,NA,"",NA,0.96603574000028,"f",NA,20,"inlab","MacIntel",NA,NA,NA,NA
"290",96409,1,0,1,938,"switch","number","numSwt","noRew","hexagon","F",125,3,"","",NA,NA,"",NA,0.76145465799982,"j",NA,21,"inlab","MacIntel",NA,NA,NA,NA
"291",96409,1,0,1,939,"repeat","number","numRpt","noRew","circle","W",132,3,"","",NA,NA,"",NA,0.974183181000171,"j",NA,22,"inlab","MacIntel",NA,NA,NA,NA
"292",96409,1,0,0,939,"repeat","number","numRpt","noRew","hexagon","D",174,3,"","",NA,NA,"",NA,1.3921497729998,"k",NA,23,"inlab","MacIntel",NA,NA,NA,NA
"293",96409,1,0,1,940,"repeat","number","numRpt","noRew","circle","Y",167,3,"","",NA,NA,"",NA,1.39469738399976,"k",NA,24,"inlab","MacIntel",NA,NA,NA,NA
"294",96409,1,0,0,940,"repeat","number","numRpt","noRew","hexagon","B",132,3,"","",NA,NA,"",NA,0.868550326999866,"j",NA,25,"inlab","MacIntel",NA,NA,NA,NA
"295",96409,1,0,0,940,"switch","letter","lettSwt","noRew","hexagon","U",181,3,"","",NA,NA,"",NA,1.36438853199979,"f",NA,26,"inlab","MacIntel",NA,NA,NA,NA
"296",96409,1,0,10,950,"repeat","letter","lettRpt","noRew","circle","W",174,3,"","",NA,NA,"",NA,0.839210850999734,"f",NA,27,"inlab","MacIntel",NA,NA,NA,NA
"297",96409,1,0,1,951,"repeat","letter","lettRpt","noRew","circle","F",160,3,"","",NA,NA,"",NA,0.936018507999961,"d",NA,28,"inlab","MacIntel",NA,NA,NA,NA
"298",96409,1,0,10,961,"repeat","letter","lettRpt","noRew","hexagon","S",146,3,"","",NA,NA,"",NA,0.756285133999882,"f",NA,29,"inlab","MacIntel",NA,NA,NA,NA
"299",96409,1,0,1,962,"repeat","letter","lettRpt","noRew","circle","H",139,3,"","",NA,NA,"",NA,1.19275800299965,"d",NA,30,"inlab","MacIntel",NA,NA,NA,NA
"300",96409,1,0,0,962,"switch","number","numSwt","noRew","hexagon","D",125,3,"","",NA,NA,"",NA,0.994339096999966,"j",NA,31,"inlab","MacIntel",NA,NA,NA,NA
"301",96409,1,0,10,972,"switch","letter","lettSwt","noRew","star","U",132,4,"","",NA,NA,"",NA,1.14602667900022,"f",NA,0,"inlab","MacIntel",NA,NA,NA,NA
"302",96409,1,0,10,982,"repeat","letter","lettRpt","noRew","triangle","B",181,4,"","",NA,NA,"",NA,0.799064858000065,"d",NA,1,"inlab","MacIntel",NA,NA,NA,NA
"303",96409,1,0,0,982,"repeat","letter","lettRpt","noRew","triangle","H",139,4,"","",NA,NA,"",NA,0.840779731000339,"d",NA,2,"inlab","MacIntel",NA,NA,NA,NA
"304",96409,1,0,10,992,"repeat","letter","lettRpt","noRew","star","Y",146,4,"","",NA,NA,"",NA,0.873845115999529,"f",NA,3,"inlab","MacIntel",NA,NA,NA,NA
"305",96409,1,0,0,992,"repeat","letter","lettRpt","noRew","triangle","F",160,4,"","",NA,NA,"",NA,1.10545023699956,"d",NA,4,"inlab","MacIntel",NA,NA,NA,NA
"306",96409,1,0,1,993,"switch","number","numSwt","noRew","star","S",174,4,"","",NA,NA,"",NA,0.943361156999572,"k",NA,5,"inlab","MacIntel",NA,NA,NA,NA
"307",96409,1,0,0,993,"repeat","number","numRpt","noRew","triangle","W",125,4,"","",NA,NA,"",NA,0.981073431000141,"j",NA,6,"inlab","MacIntel",NA,NA,NA,NA
"308",96409,1,0,1,994,"repeat","number","numRpt","noRew","star","D",167,4,"","",NA,NA,"",NA,0.951074765000385,"k",NA,7,"inlab","MacIntel",NA,NA,NA,NA
"309",96409,1,0,10,1004,"repeat","number","numRpt","noRew","triangle","U",132,4,"","",NA,NA,"",NA,0.835686646000113,"j",NA,8,"inlab","MacIntel",NA,NA,NA,NA
"310",96409,1,0,1,1005,"repeat","number","numRpt","noRew","star","B",181,4,"","",NA,NA,"",NA,0.763739537999982,"k",NA,9,"inlab","MacIntel",NA,NA,NA,NA
"311",96409,1,0,1,1006,"repeat","number","numRpt","noRew","star","H",139,4,"","",NA,NA,"",NA,0.975632904999429,"j",NA,10,"inlab","MacIntel",NA,NA,NA,NA
"312",96409,1,0,0,1006,"repeat","number","numRpt","noRew","triangle","Y",146,4,"","",NA,NA,"",NA,0.979315044000259,"j",NA,11,"inlab","MacIntel",NA,NA,NA,NA
"313",96409,1,0,10,1016,"repeat","number","numRpt","noRew","triangle","F",160,4,"","",NA,NA,"",NA,0.82251360899977,"k",NA,12,"inlab","MacIntel",NA,NA,NA,NA
"314",96409,1,0,1,1017,"switch","letter","lettSwt","noRew","star","S",174,4,"","",NA,NA,"",NA,1.13627218499983,"f",NA,13,"inlab","MacIntel",NA,NA,NA,NA
"315",96409,1,0,0,1017,"repeat","letter","lettRpt","noRew","triangle","W",125,4,"","",NA,NA,"",NA,1.04443925799956,"f",NA,14,"inlab","MacIntel",NA,NA,NA,NA
"316",96409,1,0,1,1018,"repeat","letter","lettRpt","noRew","star","D",167,4,"","",NA,NA,"",NA,0.860458993000293,"d",NA,15,"inlab","MacIntel",NA,NA,NA,NA
"317",96409,1,0,1,1019,"repeat","letter","lettRpt","noRew","star","U",132,4,"","",NA,NA,"",NA,1.38033991700036,"f",NA,16,"inlab","MacIntel",NA,NA,NA,NA
"318",96409,1,0,0,1019,"switch","number","numSwt","noRew","triangle","W",167,4,"","",NA,NA,"",NA,1.07860351299973,"k",NA,17,"inlab","MacIntel",NA,NA,NA,NA
"319",96409,1,0,0,1019,"repeat","number","numRpt","noRew","triangle","H",160,4,"","",NA,NA,"",NA,1.06924564899987,"k",NA,18,"inlab","MacIntel",NA,NA,NA,NA
"320",96409,1,0,1,1020,"repeat","number","numRpt","noRew","star","F",181,4,"","",NA,NA,"",NA,0.884718041999577,"k",NA,19,"inlab","MacIntel",NA,NA,NA,NA
"321",96409,1,0,10,1030,"switch","letter","lettSwt","noRew","star","S",125,4,"","",NA,NA,"",NA,0.732338586999731,"f",NA,20,"inlab","MacIntel",NA,NA,NA,NA
"322",96409,1,0,1,1031,"repeat","letter","lettRpt","noRew","triangle","D",174,4,"","",NA,NA,"",NA,0.71308174300043,"d",NA,21,"inlab","MacIntel",NA,NA,NA,NA
"323",96409,1,0,1,1032,"repeat","letter","lettRpt","noRew","star","B",139,4,"","",NA,NA,"",NA,0.583859874999462,"d",NA,22,"inlab","MacIntel",NA,NA,NA,NA
"324",96409,1,0,0,1032,"switch","number","numSwt","noRew","triangle","Y",146,4,"","",NA,NA,"",NA,0.891264452000314,"j",NA,23,"inlab","MacIntel",NA,NA,NA,NA
"325",96409,1,0,10,1042,"repeat","number","numRpt","noRew","star","S",160,4,"","",NA,NA,"",NA,0.88171115199998,"k",NA,24,"inlab","MacIntel",NA,NA,NA,NA
"326",96409,1,0,1,1043,"repeat","number","numRpt","noRew","triangle","H",146,4,"","",NA,NA,"",NA,0.880637011999852,"j",NA,25,"inlab","MacIntel",NA,NA,NA,NA
"327",96409,1,0,1,1044,"repeat","number","numRpt","noRew","star","D",167,4,"","",NA,NA,"",NA,0.736358325999618,"k",NA,26,"inlab","MacIntel",NA,NA,NA,NA
"328",96409,1,0,10,1054,"switch","letter","lettSwt","noRew","triangle","F",132,4,"","",NA,NA,"",NA,0.829135836999967,"d",NA,27,"inlab","MacIntel",NA,NA,NA,NA
"329",96409,0,0,0,1054,"repeat","letter",NA,"noRew","star","B",181,4,"","",NA,NA,"",NA,0.21451664600022,"f",NA,28,"inlab","MacIntel",NA,NA,NA,NA
"330",96409,1,1,10,1064,"repeat","letter","lettRpt","noRew","triangle","Y",125,4,"","",NA,NA,"",NA,0.529318198999817,"f",NA,29,"inlab","MacIntel",NA,NA,NA,NA
"331",96409,1,0,0,1064,"repeat","letter","lettRpt","noRew","triangle","U",139,4,"","",NA,NA,"",NA,1.08610765099979,"f",NA,30,"inlab","MacIntel",NA,NA,NA,NA
"332",96409,1,0,1,1065,"repeat","letter","lettRpt","noRew","star","W",174,4,"","",NA,NA,"",NA,1.09308656099961,"f",NA,31,"inlab","MacIntel",NA,NA,NA,NA
"333",96409,1,0,0,1065,"repeat","letter","lettRpt","noRew","triangle","B",160,5,"","",NA,NA,"",NA,1.26083334099962,"d",NA,0,"inlab","MacIntel",NA,NA,NA,NA
"334",96409,0,0,0,1065,"repeat","letter",NA,"noRew","star","F",125,5,"","",NA,NA,"",NA,0.0851054610004667,"f",NA,1,"inlab","MacIntel",NA,NA,NA,NA
"335",96409,1,1,1,1066,"switch","number","numSwt","noRew","triangle","W",167,5,"","",NA,NA,"",NA,0.675394521000044,"k",NA,2,"inlab","MacIntel",NA,NA,NA,NA
"336",96409,0,0,0,1066,"repeat","number",NA,"noRew","star","D",132,5,"","",NA,NA,"",NA,0.172080889999734,"k",NA,3,"inlab","MacIntel",NA,NA,NA,NA
"337",96409,1,1,10,1076,"repeat","number","numRpt","noRew","triangle","U",174,5,"","",NA,NA,"",NA,0.71890993700049,"k",NA,4,"inlab","MacIntel",NA,NA,NA,NA
"338",96409,1,0,10,1086,"repeat","number","numRpt","noRew","star","H",139,5,"","",NA,NA,"",NA,0.789989742999524,"j",NA,5,"inlab","MacIntel",NA,NA,NA,NA
"339",96409,1,0,0,1086,"repeat","number","numRpt","noRew","triangle","Y",181,5,"","",NA,NA,"",NA,0.919880576000423,"k",NA,6,"inlab","MacIntel",NA,NA,NA,NA
"340",96409,1,0,10,1096,"repeat","number","numRpt","noRew","star","S",146,5,"","",NA,NA,"",NA,0.868775170000163,"j",NA,7,"inlab","MacIntel",NA,NA,NA,NA
"341",96409,0,0,0,1096,"repeat","number",NA,"noRew","triangle","B",160,5,"","",NA,NA,"",NA,0.748913044000119,"j",NA,8,"inlab","MacIntel",NA,NA,NA,NA
"342",96409,1,1,10,1106,"repeat","number","numRpt","noRew","star","F",125,5,"","",NA,NA,"",NA,0.721130201999358,"j",NA,9,"inlab","MacIntel",NA,NA,NA,NA
"343",96409,1,0,0,1106,"switch","letter","lettSwt","noRew","triangle","W",167,5,"","",NA,NA,"",NA,1.3349396229994,"f",NA,10,"inlab","MacIntel",NA,NA,NA,NA
"344",96409,1,0,1,1107,"repeat","letter","lettRpt","noRew","star","D",132,5,"","",NA,NA,"",NA,0.635047295999584,"d",NA,11,"inlab","MacIntel",NA,NA,NA,NA
"345",96409,1,0,0,1107,"repeat","letter","lettRpt","noRew","triangle","U",174,5,"","",NA,NA,"",NA,1.02787101999934,"f",NA,12,"inlab","MacIntel",NA,NA,NA,NA
"346",96409,1,0,1,1108,"repeat","letter","lettRpt","noRew","star","H",139,5,"","",NA,NA,"",NA,2.82934986700025,"d",NA,13,"inlab","MacIntel",NA,NA,NA,NA
"347",96409,1,0,1,1109,"repeat","letter","lettRpt","noRew","triangle","Y",181,5,"","",NA,NA,"",NA,0.684139578999975,"f",NA,14,"inlab","MacIntel",NA,NA,NA,NA
"348",96409,1,0,10,1119,"repeat","letter","lettRpt","noRew","star","S",146,5,"","",NA,NA,"",NA,1.14874657599989,"f",NA,15,"inlab","MacIntel",NA,NA,NA,NA
"349",96409,1,0,0,1119,"repeat","letter","lettRpt","noRew","triangle","D",167,5,"","",NA,NA,"",NA,1.05644298699985,"d",NA,16,"inlab","MacIntel",NA,NA,NA,NA
"350",96409,1,0,1,1120,"repeat","letter","lettRpt","noRew","star","S",181,5,"","",NA,NA,"",NA,1.01659517599978,"f",NA,17,"inlab","MacIntel",NA,NA,NA,NA
"351",96409,1,0,10,1130,"switch","number","numSwt","noRew","triangle","W",139,5,"","",NA,NA,"",NA,0.794107317000226,"j",NA,18,"inlab","MacIntel",NA,NA,NA,NA
"352",96409,1,0,10,1140,"repeat","number","numRpt","noRew","star","H",174,5,"","",NA,NA,"",NA,0.676136240999995,"k",NA,19,"inlab","MacIntel",NA,NA,NA,NA
"353",96409,1,0,0,1140,"repeat","number","numRpt","noRew","triangle","B",160,5,"","",NA,NA,"",NA,1.32390328299994,"k",NA,20,"inlab","MacIntel",NA,NA,NA,NA
"354",96409,1,0,10,1150,"repeat","number","numRpt","noRew","star","Y",125,5,"","",NA,NA,"",NA,0.961087843000087,"j",NA,21,"inlab","MacIntel",NA,NA,NA,NA
"355",96409,1,0,0,1150,"switch","letter","lettSwt","noRew","triangle","U",132,5,"","",NA,NA,"",NA,1.0125809220001,"f",NA,22,"inlab","MacIntel",NA,NA,NA,NA
"356",96409,1,0,1,1151,"repeat","letter","lettRpt","noRew","star","F",146,5,"","",NA,NA,"",NA,0.701944137000055,"d",NA,23,"inlab","MacIntel",NA,NA,NA,NA
"357",96409,0,0,0,1151,"repeat","letter",NA,"noRew","triangle","S",139,5,"","",NA,NA,"",NA,2.50877920700009,"d",NA,24,"inlab","MacIntel",NA,NA,NA,NA
"358",96409,1,1,10,1161,"repeat","letter","lettRpt","noRew","star","W",167,5,"","",NA,NA,"",NA,1.00067374299965,"f",NA,25,"inlab","MacIntel",NA,NA,NA,NA
"359",96409,1,0,1,1162,"repeat","letter","lettRpt","noRew","star","U",125,5,"","",NA,NA,"",NA,1.12303233900025,"f",NA,26,"inlab","MacIntel",NA,NA,NA,NA
"360",96409,1,0,0,1162,"repeat","letter","lettRpt","noRew","triangle","Y",181,5,"","",NA,NA,"",NA,1.31164521899996,"f",NA,27,"inlab","MacIntel",NA,NA,NA,NA
"361",96409,1,0,1,1163,"repeat","letter","lettRpt","noRew","star","F",174,5,"","",NA,NA,"",NA,0.917396595999662,"d",NA,28,"inlab","MacIntel",NA,NA,NA,NA
"362",96409,0,0,0,1163,"switch","number",NA,"noRew","triangle","B",132,5,"","",NA,NA,"",NA,1.10768461200018,"k",NA,29,"inlab","MacIntel",NA,NA,NA,NA
"363",96409,1,1,1,1164,"repeat","number","numRpt","noRew","star","H",146,5,"","",NA,NA,"",NA,1.37676336599975,"j",NA,30,"inlab","MacIntel",NA,NA,NA,NA
"364",96409,1,0,0,1164,"repeat","number","numRpt","noRew","triangle","D",160,5,"","",NA,NA,"",NA,1.12353826499998,"k",NA,31,"inlab","MacIntel",NA,NA,NA,NA
